"","X","workerid","property","trial_type","rt","trial_num","response","sentence","targetMention","item","type","Property"
"1",1,0,"carries malaria","free_production",7219,1,"mosquito","mosquito carries malaria",1,"mosquito carries malaria","diagnostic","carry malaria"
"2",1,0,"carries malaria","free_production",7219,1,"mosquito","mosquito carries malaria",1,"mosquito carries malaria","diagnostic","carry malaria"
"3",2,0,"eats people","free_production",5291,2,"shark","shark eats people",0,"shark eats people",NA,"eat people"
"4",3,0,"is juvenile","free_production",5026,3,"tiger","tiger is juvenile",0,"tiger is juvenile",NA,"are juvenile"
"5",4,0,"has a mane","free_production",4163,4,"horse","horse has a mane",0,"horse has a mane",NA,"have manes"
"6",4,0,"has a mane","free_production",4163,4,"horse","horse has a mane",0,"horse has a mane",NA,"have manes"
"7",5,0,"is full-grown","free_production",5666,5,"bear","bear is full-grown",0,"bear is full-grown",NA,"are full-grown"
"8",6,0,"doesnt carry Lyme disease","free_production",6871,6,"prayingmanti","prayingmanti doesn't carry Lyme disease",0,"prayingmanti doesn't carry Lyme disease",NA,"dont carry Lyme disease"
"9",7,0,"is white","free_production",3773,7,"dove","dove is white",0,"dove is white",NA,"are white"
"10",7,0,"is white","free_production",3773,7,"dove","dove is white",0,"dove is white",NA,"are white"
"11",8,0,"doesnt eat people","free_production",3326,8,"cat","cat doesn't eat people",0,"cat doesn't eat people",NA,"dont eat people"
"12",9,0,"is male","free_production",4376,9,"dog","dog is male",0,"dog is male",NA,"are male"
"13",10,0,"doesnt attack swimmers","free_production",8200,10,"pelican","pelican doesn't attack swimmers",0,"pelican doesn't attack swimmers",NA,"dont attack swimmers"
"14",11,0,"is red","free_production",5688,11,"cardinal","cardinal is red",1,"cardinal is red",NA,"are red"
"15",12,0,"lays eggs","free_production",5720,12,"turtle","turtle lays eggs",0,"turtle lays eggs",NA,"lay eggs"
"16",12,0,"lays eggs","free_production",5720,12,"turtle","turtle lays eggs",0,"turtle lays eggs",NA,"lay eggs"
"17",12,0,"lays eggs","free_production",5720,12,"turtle","turtle lays eggs",0,"turtle lays eggs",NA,"lay eggs"
"18",13,0,"carries Lyme disease","free_production",2807,13,"tick","tick carries Lyme disease",1,"tick carries Lyme disease","diagnostic","carry Lyme disease"
"19",14,0,"has wings","free_production",4611,14,"bat","bat has wings",0,"bat has wings",NA,"have wings"
"20",14,0,"has wings","free_production",4611,14,"bat","bat has wings",0,"bat has wings",NA,"have wings"
"21",15,0,"has spots","free_production",10615,15,"ladybug","ladybug has spots",0,"ladybug has spots",NA,"have spots"
"22",15,0,"has spots","free_production",10615,15,"ladybug","ladybug has spots",0,"ladybug has spots",NA,"have spots"
"23",16,0,"is female","free_production",15334,16,"mare","mare is female",0,"mare is female",NA,"are female"
"24",17,0,"doesnt carry malaria","free_production",3034,17,"fly","fly doesn't carry malaria",0,"fly doesn't carry malaria",NA,"dont carry malaria"
"25",18,0,"attacks swimmers","free_production",3997,18,"eel","eel attacks swimmers",0,"eel attacks swimmers",NA,"attack swimmers"
"26",18,0,"attacks swimmers","free_production",3997,18,"eel","eel attacks swimmers",0,"eel attacks swimmers",NA,"attack swimmers"
"27",19,0,"doesnt have beautiful feathers","free_production",3665,19,"pig","pig doesn't have beautiful feathers",0,"pig doesn't have beautiful feathers",NA,"dont have beautiful feathers"
"28",20,0,"has a pouch","free_production",3734,20,"kangaroo","kangaroo has a pouch",1,"kangaroo has a pouch","diagnostic","have pouches"
"29",20,0,"has a pouch","free_production",3734,20,"kangaroo","kangaroo has a pouch",1,"kangaroo has a pouch","diagnostic","have pouches"
"30",21,0,"has beautiful feathers","free_production",4477,21,"peacock","peacock has beautiful feathers",1,"peacock has beautiful feathers",NA,"have beautiful feathers"
"31",22,1,"doesnt eat people","free_production",14828,1,"ant","ant doesn't eat people",0,"ant doesn't eat people",NA,"dont eat people"
"32",23,1,"is female","free_production",21819,2,"cat","cat is female",0,"cat is female",NA,"are female"
"33",24,1,"has a mane","free_production",23348,3,"lion","lion has a mane",1,"lion has a mane","diagnostic","have manes"
"34",24,1,"has a mane","free_production",23348,3,"lion","lion has a mane",1,"lion has a mane","diagnostic","have manes"
"35",25,1,"carries Lyme disease","free_production",8546,4,"mosquito","mosquito carries Lyme disease",0,"mosquito carries Lyme disease",NA,"carry Lyme disease"
"36",26,1,"is red","free_production",10507,5,"redant","redant is red",0,"redant is red",NA,"are red"
"37",27,1,"doesnt carry Lyme disease","free_production",4983,6,"fly","fly doesn't carry Lyme disease",0,"fly doesn't carry Lyme disease",NA,"dont carry Lyme disease"
"38",28,1,"has spots","free_production",14554,7,"beetle","beetle has spots",0,"beetle has spots",NA,"have spots"
"39",28,1,"has spots","free_production",14554,7,"beetle","beetle has spots",0,"beetle has spots",NA,"have spots"
"40",29,1,"has a pouch","free_production",4468,8,"kangaroo","kangaroo has a pouch",1,"kangaroo has a pouch","diagnostic","have pouches"
"41",29,1,"has a pouch","free_production",4468,8,"kangaroo","kangaroo has a pouch",1,"kangaroo has a pouch","diagnostic","have pouches"
"42",30,1,"doesnt have beautiful feathers","free_production",7836,9,"lizard","lizard doesn't have beautiful feathers",0,"lizard doesn't have beautiful feathers",NA,"dont have beautiful feathers"
"43",31,1,"has beautiful feathers","free_production",3468,10,"bird","bird has beautiful feathers",0,"bird has beautiful feathers",NA,"have beautiful feathers"
"44",32,1,"doesnt attack swimmers","free_production",43645,11,"dog","dog doesn't attack swimmers",0,"dog doesn't attack swimmers",NA,"dont attack swimmers"
"45",33,1,"doesnt carry malaria","free_production",7258,12,"dog","dog doesn't carry malaria",0,"dog doesn't carry malaria",NA,"dont carry malaria"
"46",34,1,"eats people","free_production",8177,13,"crocodile","crocodile eats people",0,"crocodile eats people",NA,"eat people"
"47",35,1,"is full-grown","free_production",5056,14,"dog","dog is full-grown",0,"dog is full-grown",NA,"are full-grown"
"48",36,1,"lays eggs","free_production",4836,15,"chicken","chicken lays eggs",0,"chicken lays eggs",NA,"lay eggs"
"49",36,1,"lays eggs","free_production",4836,15,"chicken","chicken lays eggs",0,"chicken lays eggs",NA,"lay eggs"
"50",36,1,"lays eggs","free_production",4836,15,"chicken","chicken lays eggs",0,"chicken lays eggs",NA,"lay eggs"
"51",37,1,"has wings","free_production",2990,16,"bird","bird has wings",0,"bird has wings",NA,"have wings"
"52",37,1,"has wings","free_production",2990,16,"bird","bird has wings",0,"bird has wings",NA,"have wings"
"53",38,1,"attacks swimmers","free_production",3656,17,"shark","shark attacks swimmers",1,"shark attacks swimmers",NA,"attack swimmers"
"54",38,1,"attacks swimmers","free_production",3656,17,"shark","shark attacks swimmers",1,"shark attacks swimmers",NA,"attack swimmers"
"55",39,1,"carries malaria","free_production",8905,18,"mosquito","mosquito carries malaria",1,"mosquito carries malaria","diagnostic","carry malaria"
"56",39,1,"carries malaria","free_production",8905,18,"mosquito","mosquito carries malaria",1,"mosquito carries malaria","diagnostic","carry malaria"
"57",40,1,"is male","free_production",3774,19,"dog","dog is male",0,"dog is male",NA,"are male"
"58",41,1,"is juvenile","free_production",9709,20,"puppy","puppy is juvenile",0,"puppy is juvenile",NA,"are juvenile"
"59",42,1,"is white","free_production",4156,21,"cow","cow is white",0,"cow is white",NA,"are white"
"60",42,1,"is white","free_production",4156,21,"cow","cow is white",0,"cow is white",NA,"are white"
"61",43,2,"has a pouch","free_production",5495,1,"kangaroo","kangaroo has a pouch",1,"kangaroo has a pouch","diagnostic","have pouches"
"62",43,2,"has a pouch","free_production",5495,1,"kangaroo","kangaroo has a pouch",1,"kangaroo has a pouch","diagnostic","have pouches"
"63",44,2,"doesnt attack swimmers","free_production",12388,2,"clownfish","clownfish doesn't attack swimmers",0,"clownfish doesn't attack swimmers",NA,"dont attack swimmers"
"64",45,2,"attacks swimmers","free_production",4632,3,"shark","shark attacks swimmers",1,"shark attacks swimmers",NA,"attack swimmers"
"65",45,2,"attacks swimmers","free_production",4632,3,"shark","shark attacks swimmers",1,"shark attacks swimmers",NA,"attack swimmers"
"66",46,2,"eats people","free_production",12825,4,"lion","lion eats people",0,"lion eats people",NA,"eat people"
"67",47,2,"doesnt have beautiful feathers","free_production",7279,5,"pigeon","pigeon doesn't have beautiful feathers",0,"pigeon doesn't have beautiful feathers",NA,"dont have beautiful feathers"
"68",48,2,"has beautiful feathers","free_production",6711,6,"peacock","peacock has beautiful feathers",1,"peacock has beautiful feathers",NA,"have beautiful feathers"
"69",49,2,"has a mane","free_production",5857,7,"lion","lion has a mane",1,"lion has a mane","diagnostic","have manes"
"70",49,2,"has a mane","free_production",5857,7,"lion","lion has a mane",1,"lion has a mane","diagnostic","have manes"
"71",50,2,"carries Lyme disease","free_production",2908,8,"tick","tick carries Lyme disease",1,"tick carries Lyme disease","diagnostic","carry Lyme disease"
"72",51,2,"carries malaria","free_production",7983,9,"mosquito","mosquito carries malaria",1,"mosquito carries malaria","diagnostic","carry malaria"
"73",51,2,"carries malaria","free_production",7983,9,"mosquito","mosquito carries malaria",1,"mosquito carries malaria","diagnostic","carry malaria"
"74",52,2,"is full-grown","free_production",7821,10,"elephant","elephant is full-grown",0,"elephant is full-grown",NA,"are full-grown"
"75",53,2,"doesnt eat people","free_production",7755,11,"cat","cat doesn't eat people",0,"cat doesn't eat people",NA,"dont eat people"
"76",54,2,"is female","free_production",22538,12,"chicken","chicken is female",0,"chicken is female",NA,"are female"
"77",55,2,"has wings","free_production",7149,13,"hummingbird","hummingbird has wings",0,"hummingbird has wings",NA,"have wings"
"78",55,2,"has wings","free_production",7149,13,"hummingbird","hummingbird has wings",0,"hummingbird has wings",NA,"have wings"
"79",56,2,"doesnt carry malaria","free_production",4280,14,"dog","dog doesn't carry malaria",0,"dog doesn't carry malaria",NA,"dont carry malaria"
"80",57,2,"doesnt carry Lyme disease","free_production",7223,15,"cat","cat doesn't carry Lyme disease",0,"cat doesn't carry Lyme disease",NA,"dont carry Lyme disease"
"81",58,2,"is red","free_production",24154,16,"bird","bird is red",0,"bird is red",NA,"are red"
"82",59,2,"has spots","free_production",10033,17,"leopard","leopard has spots",1,"leopard has spots",NA,"have spots"
"83",59,2,"has spots","free_production",10033,17,"leopard","leopard has spots",1,"leopard has spots",NA,"have spots"
"84",60,2,"is male","free_production",4241,18,"rooster","rooster is male",0,"rooster is male",NA,"are male"
"85",61,2,"lays eggs","free_production",5985,19,"chicken","chicken lays eggs",0,"chicken lays eggs",NA,"lay eggs"
"86",61,2,"lays eggs","free_production",5985,19,"chicken","chicken lays eggs",0,"chicken lays eggs",NA,"lay eggs"
"87",61,2,"lays eggs","free_production",5985,19,"chicken","chicken lays eggs",0,"chicken lays eggs",NA,"lay eggs"
"88",62,2,"is white","free_production",21088,20,"cat","cat is white",0,"cat is white",NA,"are white"
"89",62,2,"is white","free_production",21088,20,"cat","cat is white",0,"cat is white",NA,"are white"
"90",63,2,"is juvenile","free_production",6263,21,"kitten","kitten is juvenile",0,"kitten is juvenile",NA,"are juvenile"
"91",64,3,"carries Lyme disease","free_production",13743,1,"tick","tick carries Lyme disease",1,"tick carries Lyme disease","diagnostic","carry Lyme disease"
"92",65,3,"is juvenile","free_production",6943,2,"kitten","kitten is juvenile",0,"kitten is juvenile",NA,"are juvenile"
"93",66,3,"is female","free_production",7496,3,"cat","cat is female",0,"cat is female",NA,"are female"
"94",67,3,"has a mane","free_production",4296,4,"lion","lion has a mane",1,"lion has a mane","diagnostic","have manes"
"95",67,3,"has a mane","free_production",4296,4,"lion","lion has a mane",1,"lion has a mane","diagnostic","have manes"
"96",68,3,"carries malaria","free_production",9104,5,"mosquito","mosquito carries malaria",1,"mosquito carries malaria","diagnostic","carry malaria"
"97",68,3,"carries malaria","free_production",9104,5,"mosquito","mosquito carries malaria",1,"mosquito carries malaria","diagnostic","carry malaria"
"98",69,3,"doesnt attack swimmers","free_production",10216,6,"trout","trout doesn't attack swimmers",0,"trout doesn't attack swimmers",NA,"dont attack swimmers"
"99",70,3,"is red","free_production",7304,7,"ladybug","ladybug is red",0,"ladybug is red",NA,"are red"
"100",71,3,"eats people","free_production",9680,8,"shark","shark eats people",0,"shark eats people",NA,"eat people"
"101",72,3,"has beautiful feathers","free_production",6888,9,"peacock","peacock has beautiful feathers",1,"peacock has beautiful feathers",NA,"have beautiful feathers"
"102",73,3,"has wings","free_production",6648,10,"eagle","eagle has wings",0,"eagle has wings",NA,"have wings"
"103",73,3,"has wings","free_production",6648,10,"eagle","eagle has wings",0,"eagle has wings",NA,"have wings"
"104",74,3,"attacks swimmers","free_production",18840,11,"shark","shark attacks swimmers",1,"shark attacks swimmers",NA,"attack swimmers"
"105",74,3,"attacks swimmers","free_production",18840,11,"shark","shark attacks swimmers",1,"shark attacks swimmers",NA,"attack swimmers"
"106",75,3,"doesnt have beautiful feathers","free_production",10952,12,"pidgeon","pidgeon doesn't have beautiful feathers",0,"pidgeon doesn't have beautiful feathers",NA,"dont have beautiful feathers"
"107",76,3,"doesnt carry malaria","free_production",7911,13,"ant","ant doesn't carry malaria",0,"ant doesn't carry malaria",NA,"dont carry malaria"
"108",77,3,"doesnt carry Lyme disease","free_production",14047,14,"cheetah","cheetah doesn't carry Lyme disease",0,"cheetah doesn't carry Lyme disease",NA,"dont carry Lyme disease"
"109",78,3,"doesnt eat people","free_production",4848,15,"dog","dog doesn't eat people",0,"dog doesn't eat people",NA,"dont eat people"
"110",79,3,"is full-grown","free_production",8288,16,"elephant","elephant is full-grown",0,"elephant is full-grown",NA,"are full-grown"
"111",80,3,"has a pouch","free_production",6104,17,"kangaroo","kangaroo has a pouch",1,"kangaroo has a pouch","diagnostic","have pouches"
"112",80,3,"has a pouch","free_production",6104,17,"kangaroo","kangaroo has a pouch",1,"kangaroo has a pouch","diagnostic","have pouches"
"113",81,3,"lays eggs","free_production",3824,18,"chicken","chicken lays eggs",0,"chicken lays eggs",NA,"lay eggs"
"114",81,3,"lays eggs","free_production",3824,18,"chicken","chicken lays eggs",0,"chicken lays eggs",NA,"lay eggs"
"115",81,3,"lays eggs","free_production",3824,18,"chicken","chicken lays eggs",0,"chicken lays eggs",NA,"lay eggs"
"116",82,3,"is male","free_production",5448,19,"wolf","wolf is male",0,"wolf is male",NA,"are male"
"117",83,3,"is white","free_production",7248,20,"rabbit","rabbit is white",0,"rabbit is white",NA,"are white"
"118",83,3,"is white","free_production",7248,20,"rabbit","rabbit is white",0,"rabbit is white",NA,"are white"
"119",84,3,"has spots","free_production",10153,21,"duck","duck has spots",0,"duck has spots",NA,"have spots"
"120",84,3,"has spots","free_production",10153,21,"duck","duck has spots",0,"duck has spots",NA,"have spots"
"121",85,4,"doesnt have beautiful feathers","free_production",5243,1,"cat","cat doesn't have beautiful feathers",0,"cat doesn't have beautiful feathers",NA,"dont have beautiful feathers"
"122",86,4,"carries malaria","free_production",4347,2,"mosquito","mosquito carries malaria",1,"mosquito carries malaria","diagnostic","carry malaria"
"123",86,4,"carries malaria","free_production",4347,2,"mosquito","mosquito carries malaria",1,"mosquito carries malaria","diagnostic","carry malaria"
"124",87,4,"is white","free_production",4683,3,"whale","whale is white",0,"whale is white",NA,"are white"
"125",87,4,"is white","free_production",4683,3,"whale","whale is white",0,"whale is white",NA,"are white"
"126",88,4,"has spots","free_production",13619,4,"giraffe","giraffe has spots",0,"giraffe has spots",NA,"have spots"
"127",88,4,"has spots","free_production",13619,4,"giraffe","giraffe has spots",0,"giraffe has spots",NA,"have spots"
"128",89,4,"attacks swimmers","free_production",3833,5,"shark","shark attacks swimmers",1,"shark attacks swimmers",NA,"attack swimmers"
"129",89,4,"attacks swimmers","free_production",3833,5,"shark","shark attacks swimmers",1,"shark attacks swimmers",NA,"attack swimmers"
"130",90,4,"lays eggs","free_production",4170,6,"fly","fly lays eggs",0,"fly lays eggs",NA,"lay eggs"
"131",90,4,"lays eggs","free_production",4170,6,"fly","fly lays eggs",0,"fly lays eggs",NA,"lay eggs"
"132",90,4,"lays eggs","free_production",4170,6,"fly","fly lays eggs",0,"fly lays eggs",NA,"lay eggs"
"133",91,4,"has wings","free_production",7016,7,"fly","fly has wings",0,"fly has wings",NA,"have wings"
"134",91,4,"has wings","free_production",7016,7,"fly","fly has wings",0,"fly has wings",NA,"have wings"
"135",92,4,"is juvenile","free_production",14461,8,"tigercub","tigercub is juvenile",0,"tigercub is juvenile",NA,"are juvenile"
"136",93,4,"doesnt carry malaria","free_production",3940,9,"cat","cat doesn't carry malaria",0,"cat doesn't carry malaria",NA,"dont carry malaria"
"137",94,4,"doesnt attack swimmers","free_production",3993,10,"dog","dog doesn't attack swimmers",0,"dog doesn't attack swimmers",NA,"dont attack swimmers"
"138",95,4,"eats people","free_production",5436,11,"shark","shark eats people",0,"shark eats people",NA,"eat people"
"139",96,4,"doesnt eat people","free_production",3473,12,"cat","cat doesn't eat people",0,"cat doesn't eat people",NA,"dont eat people"
"140",97,4,"carries Lyme disease","free_production",3692,13,"tick","tick carries Lyme disease",1,"tick carries Lyme disease","diagnostic","carry Lyme disease"
"141",98,4,"has a pouch","free_production",4624,14,"kangaroo","kangaroo has a pouch",1,"kangaroo has a pouch","diagnostic","have pouches"
"142",98,4,"has a pouch","free_production",4624,14,"kangaroo","kangaroo has a pouch",1,"kangaroo has a pouch","diagnostic","have pouches"
"143",99,4,"is full-grown","free_production",3833,15,"kangaro","kangaro is full-grown",0,"kangaro is full-grown",NA,"are full-grown"
"144",100,4,"is red","free_production",10712,16,"ladybug","ladybug is red",0,"ladybug is red",NA,"are red"
"145",101,4,"doesnt carry Lyme disease","free_production",6697,17,"ladybug","ladybug doesn't carry Lyme disease",0,"ladybug doesn't carry Lyme disease",NA,"dont carry Lyme disease"
"146",102,4,"has a mane","free_production",4510,18,"lion","lion has a mane",1,"lion has a mane","diagnostic","have manes"
"147",102,4,"has a mane","free_production",4510,18,"lion","lion has a mane",1,"lion has a mane","diagnostic","have manes"
"148",103,4,"is female","free_production",17224,19,"kangaroo","kangaroo is female",0,"kangaroo is female",NA,"are female"
"149",104,4,"is male","free_production",4749,20,"kangaroo","kangaroo is male",0,"kangaroo is male",NA,"are male"
"150",105,4,"has beautiful feathers","free_production",5060,21,"peacock","peacock has beautiful feathers",1,"peacock has beautiful feathers",NA,"have beautiful feathers"
"151",106,5,"carries malaria","free_production",75553,1,"mosquito","mosquito carries malaria",1,"mosquito carries malaria","diagnostic","carry malaria"
"152",106,5,"carries malaria","free_production",75553,1,"mosquito","mosquito carries malaria",1,"mosquito carries malaria","diagnostic","carry malaria"
"153",107,5,"is juvenile","free_production",7911,2,"monkey","monkey is juvenile",0,"monkey is juvenile",NA,"are juvenile"
"154",108,5,"eats people","free_production",7406,3,"tiger","tiger eats people",1,"tiger eats people",NA,"eat people"
"155",109,5,"has a pouch","free_production",10688,4,"kangaroo","kangaroo has a pouch",1,"kangaroo has a pouch","diagnostic","have pouches"
"156",109,5,"has a pouch","free_production",10688,4,"kangaroo","kangaroo has a pouch",1,"kangaroo has a pouch","diagnostic","have pouches"
"157",110,5,"doesnt have beautiful feathers","free_production",8532,5,"kiwi","kiwi doesn't have beautiful feathers",0,"kiwi doesn't have beautiful feathers",NA,"dont have beautiful feathers"
"158",111,5,"has spots","free_production",9342,6,"leopard","leopard has spots",1,"leopard has spots",NA,"have spots"
"159",111,5,"has spots","free_production",9342,6,"leopard","leopard has spots",1,"leopard has spots",NA,"have spots"
"160",112,5,"carries Lyme disease","free_production",7894,7,"tick","tick carries Lyme disease",1,"tick carries Lyme disease","diagnostic","carry Lyme disease"
"161",113,5,"lays eggs","free_production",3492,8,"hen","hen lays eggs",0,"hen lays eggs",NA,"lay eggs"
"162",113,5,"lays eggs","free_production",3492,8,"hen","hen lays eggs",0,"hen lays eggs",NA,"lay eggs"
"163",113,5,"lays eggs","free_production",3492,8,"hen","hen lays eggs",0,"hen lays eggs",NA,"lay eggs"
"164",114,5,"has wings","free_production",6166,9,"bird","bird has wings",0,"bird has wings",NA,"have wings"
"165",114,5,"has wings","free_production",6166,9,"bird","bird has wings",0,"bird has wings",NA,"have wings"
"166",115,5,"doesnt eat people","free_production",19997,10,"frog","frog doesn't eat people",0,"frog doesn't eat people",NA,"dont eat people"
"167",116,5,"is female","free_production",5804,11,"frog","frog is female",0,"frog is female",NA,"are female"
"168",117,5,"doesnt carry malaria","free_production",6323,12,"frog","frog doesn't carry malaria",0,"frog doesn't carry malaria",NA,"dont carry malaria"
"169",118,5,"doesnt carry Lyme disease","free_production",5610,13,"frog","frog doesn't carry Lyme disease",0,"frog doesn't carry Lyme disease",NA,"dont carry Lyme disease"
"170",119,5,"is red","free_production",5893,14,"cardinal","cardinal is red",1,"cardinal is red",NA,"are red"
"171",120,5,"doesnt attack swimmers","free_production",9544,15,"tuna","tuna doesn't attack swimmers",0,"tuna doesn't attack swimmers",NA,"dont attack swimmers"
"172",121,5,"has beautiful feathers","free_production",45046,16,"peacock","peacock has beautiful feathers",1,"peacock has beautiful feathers",NA,"have beautiful feathers"
"173",122,5,"is male","free_production",43818,17,"frog","frog is male",0,"frog is male",NA,"are male"
"174",123,5,"attacks swimmers","free_production",76974,18,"shark","shark attacks swimmers",1,"shark attacks swimmers",NA,"attack swimmers"
"175",123,5,"attacks swimmers","free_production",76974,18,"shark","shark attacks swimmers",1,"shark attacks swimmers",NA,"attack swimmers"
"176",124,5,"has a mane","free_production",5124,19,"lion","lion has a mane",1,"lion has a mane","diagnostic","have manes"
"177",124,5,"has a mane","free_production",5124,19,"lion","lion has a mane",1,"lion has a mane","diagnostic","have manes"
"178",125,5,"is white","free_production",9894,20,"dove","dove is white",0,"dove is white",NA,"are white"
"179",125,5,"is white","free_production",9894,20,"dove","dove is white",0,"dove is white",NA,"are white"
"180",126,5,"is full-grown","free_production",5118,21,"cow","cow is full-grown",0,"cow is full-grown",NA,"are full-grown"
"181",127,6,"carries Lyme disease","free_production",5765,1,"tick","tick carries Lyme disease",1,"tick carries Lyme disease","diagnostic","carry Lyme disease"
"182",128,6,"has a mane","free_production",2995,2,"horse","horse has a mane",0,"horse has a mane",NA,"have manes"
"183",128,6,"has a mane","free_production",2995,2,"horse","horse has a mane",0,"horse has a mane",NA,"have manes"
"184",129,6,"is male","free_production",8441,3,"dog","dog is male",0,"dog is male",NA,"are male"
"185",130,6,"doesnt carry Lyme disease","free_production",9476,4,"cat","cat doesn't carry Lyme disease",0,"cat doesn't carry Lyme disease",NA,"dont carry Lyme disease"
"186",131,6,"eats people","free_production",8828,5,"lion","lion eats people",0,"lion eats people",NA,"eat people"
"187",132,6,"is full-grown","free_production",6015,6,"poodle","poodle is full-grown",0,"poodle is full-grown",NA,"are full-grown"
"188",133,6,"has beautiful feathers","free_production",3499,7,"peacock","peacock has beautiful feathers",1,"peacock has beautiful feathers",NA,"have beautiful feathers"
"189",134,6,"doesnt eat people","free_production",5116,8,"pig","pig doesn't eat people",0,"pig doesn't eat people",NA,"dont eat people"
"190",135,6,"has a pouch","free_production",3777,9,"kangaroo","kangaroo has a pouch",1,"kangaroo has a pouch","diagnostic","have pouches"
"191",135,6,"has a pouch","free_production",3777,9,"kangaroo","kangaroo has a pouch",1,"kangaroo has a pouch","diagnostic","have pouches"
"192",136,6,"doesnt carry malaria","free_production",4486,10,"dog","dog doesn't carry malaria",0,"dog doesn't carry malaria",NA,"dont carry malaria"
"193",137,6,"doesnt attack swimmers","free_production",6589,11,"dolphin","dolphin doesn't attack swimmers",0,"dolphin doesn't attack swimmers",NA,"dont attack swimmers"
"194",138,6,"has wings","free_production",5347,12,"eagle","eagle has wings",0,"eagle has wings",NA,"have wings"
"195",138,6,"has wings","free_production",5347,12,"eagle","eagle has wings",0,"eagle has wings",NA,"have wings"
"196",139,6,"is juvenile","free_production",4942,13,"kitten","kitten is juvenile",0,"kitten is juvenile",NA,"are juvenile"
"197",140,6,"attacks swimmers","free_production",3780,14,"shark","shark attacks swimmers",1,"shark attacks swimmers",NA,"attack swimmers"
"198",140,6,"attacks swimmers","free_production",3780,14,"shark","shark attacks swimmers",1,"shark attacks swimmers",NA,"attack swimmers"
"199",141,6,"lays eggs","free_production",3162,15,"chicken","chicken lays eggs",0,"chicken lays eggs",NA,"lay eggs"
"200",141,6,"lays eggs","free_production",3162,15,"chicken","chicken lays eggs",0,"chicken lays eggs",NA,"lay eggs"
"201",141,6,"lays eggs","free_production",3162,15,"chicken","chicken lays eggs",0,"chicken lays eggs",NA,"lay eggs"
"202",142,6,"carries malaria","free_production",10070,16,"mosquito","mosquito carries malaria",1,"mosquito carries malaria","diagnostic","carry malaria"
"203",142,6,"carries malaria","free_production",10070,16,"mosquito","mosquito carries malaria",1,"mosquito carries malaria","diagnostic","carry malaria"
"204",143,6,"is red","free_production",103387,17,"ladybug","ladybug is red",0,"ladybug is red",NA,"are red"
"205",144,6,"is white","free_production",4737,18,"cat","cat is white",0,"cat is white",NA,"are white"
"206",144,6,"is white","free_production",4737,18,"cat","cat is white",0,"cat is white",NA,"are white"
"207",145,6,"is female","free_production",8255,19,"sparrow","sparrow is female",0,"sparrow is female",NA,"are female"
"208",146,6,"has spots","free_production",5113,20,"cheetah","cheetah has spots",0,"cheetah has spots",NA,"have spots"
"209",146,6,"has spots","free_production",5113,20,"cheetah","cheetah has spots",0,"cheetah has spots",NA,"have spots"
"210",147,6,"doesnt have beautiful feathers","free_production",6311,21,"gazelle","gazelle doesn't have beautiful feathers",0,"gazelle doesn't have beautiful feathers",NA,"dont have beautiful feathers"
"211",148,7,"has a mane","free_production",5643,1,"horse","horse has a mane",0,"horse has a mane",NA,"have manes"
"212",148,7,"has a mane","free_production",5643,1,"horse","horse has a mane",0,"horse has a mane",NA,"have manes"
"213",149,7,"lays eggs","free_production",4513,2,"chicken","chicken lays eggs",0,"chicken lays eggs",NA,"lay eggs"
"214",149,7,"lays eggs","free_production",4513,2,"chicken","chicken lays eggs",0,"chicken lays eggs",NA,"lay eggs"
"215",149,7,"lays eggs","free_production",4513,2,"chicken","chicken lays eggs",0,"chicken lays eggs",NA,"lay eggs"
"216",150,7,"doesnt carry malaria","free_production",9005,3,"cat","cat doesn't carry malaria",0,"cat doesn't carry malaria",NA,"dont carry malaria"
"217",151,7,"has beautiful feathers","free_production",4721,4,"peacock","peacock has beautiful feathers",1,"peacock has beautiful feathers",NA,"have beautiful feathers"
"218",152,7,"is white","free_production",5752,5,"cat","cat is white",0,"cat is white",NA,"are white"
"219",152,7,"is white","free_production",5752,5,"cat","cat is white",0,"cat is white",NA,"are white"
"220",153,7,"doesnt attack swimmers","free_production",8463,6,"tuna","tuna doesn't attack swimmers",0,"tuna doesn't attack swimmers",NA,"dont attack swimmers"
"221",154,7,"has spots","free_production",5545,7,"dalmation","dalmation has spots",0,"dalmation has spots",NA,"have spots"
"222",154,7,"has spots","free_production",5545,7,"dalmation","dalmation has spots",0,"dalmation has spots",NA,"have spots"
"223",155,7,"doesnt eat people","free_production",9910,8,"giraffe","giraffe doesn't eat people",0,"giraffe doesn't eat people",NA,"dont eat people"
"224",156,7,"is full-grown","free_production",5845,9,"elephant","elephant is full-grown",0,"elephant is full-grown",NA,"are full-grown"
"225",157,7,"carries malaria","free_production",5850,10,"mosquito","mosquito carries malaria",1,"mosquito carries malaria","diagnostic","carry malaria"
"226",157,7,"carries malaria","free_production",5850,10,"mosquito","mosquito carries malaria",1,"mosquito carries malaria","diagnostic","carry malaria"
"227",158,7,"is male","free_production",4970,11,"dog","dog is male",0,"dog is male",NA,"are male"
"228",159,7,"eats people","free_production",4691,12,"lion","lion eats people",0,"lion eats people",NA,"eat people"
"229",160,7,"is female","free_production",3376,13,"bear","bear is female",0,"bear is female",NA,"are female"
"230",161,7,"has a pouch","free_production",4833,14,"kangaroo","kangaroo has a pouch",1,"kangaroo has a pouch","diagnostic","have pouches"
"231",161,7,"has a pouch","free_production",4833,14,"kangaroo","kangaroo has a pouch",1,"kangaroo has a pouch","diagnostic","have pouches"
"232",162,7,"is juvenile","free_production",4755,15,"joey","joey is juvenile",0,"joey is juvenile",NA,"are juvenile"
"233",163,7,"carries Lyme disease","free_production",4468,16,"tick","tick carries Lyme disease",1,"tick carries Lyme disease","diagnostic","carry Lyme disease"
"234",164,7,"doesnt carry Lyme disease","free_production",5846,17,"mosquito","mosquito doesn't carry Lyme disease",0,"mosquito doesn't carry Lyme disease",NA,"dont carry Lyme disease"
"235",165,7,"is red","free_production",4854,18,"ladybug","ladybug is red",0,"ladybug is red",NA,"are red"
"236",166,7,"attacks swimmers","free_production",3849,19,"shark","shark attacks swimmers",1,"shark attacks swimmers",NA,"attack swimmers"
"237",166,7,"attacks swimmers","free_production",3849,19,"shark","shark attacks swimmers",1,"shark attacks swimmers",NA,"attack swimmers"
"238",167,7,"has wings","free_production",6596,20,"beatle","beatle has wings",0,"beatle has wings",NA,"have wings"
"239",167,7,"has wings","free_production",6596,20,"beatle","beatle has wings",0,"beatle has wings",NA,"have wings"
"240",168,7,"doesnt have beautiful feathers","free_production",8618,21,"finch","finch doesn't have beautiful feathers",0,"finch doesn't have beautiful feathers",NA,"dont have beautiful feathers"
"241",169,8,"carries Lyme disease","free_production",5924,1,"tick","tick carries Lyme disease",1,"tick carries Lyme disease","diagnostic","carry Lyme disease"
"242",170,8,"doesnt have beautiful feathers","free_production",8760,2,"ostrich","ostrich doesn't have beautiful feathers",0,"ostrich doesn't have beautiful feathers",NA,"dont have beautiful feathers"
"243",171,8,"carries malaria","free_production",7280,3,"mosquito","mosquito carries malaria",1,"mosquito carries malaria","diagnostic","carry malaria"
"244",171,8,"carries malaria","free_production",7280,3,"mosquito","mosquito carries malaria",1,"mosquito carries malaria","diagnostic","carry malaria"
"245",172,8,"attacks swimmers","free_production",6250,4,"shark","shark attacks swimmers",1,"shark attacks swimmers",NA,"attack swimmers"
"246",172,8,"attacks swimmers","free_production",6250,4,"shark","shark attacks swimmers",1,"shark attacks swimmers",NA,"attack swimmers"
"247",173,8,"has wings","free_production",6944,5,"butterfly","butterfly has wings",0,"butterfly has wings",NA,"have wings"
"248",173,8,"has wings","free_production",6944,5,"butterfly","butterfly has wings",0,"butterfly has wings",NA,"have wings"
"249",174,8,"has beautiful feathers","free_production",5354,6,"peacock","peacock has beautiful feathers",1,"peacock has beautiful feathers",NA,"have beautiful feathers"
"250",175,8,"doesnt eat people","free_production",7422,7,"giraffe","giraffe doesn't eat people",0,"giraffe doesn't eat people",NA,"dont eat people"
"251",176,8,"doesnt carry Lyme disease","free_production",7245,8,"fly","fly doesn't carry Lyme disease",0,"fly doesn't carry Lyme disease",NA,"dont carry Lyme disease"
"252",177,8,"has a pouch","free_production",3882,9,"kangaroo","kangaroo has a pouch",1,"kangaroo has a pouch","diagnostic","have pouches"
"253",177,8,"has a pouch","free_production",3882,9,"kangaroo","kangaroo has a pouch",1,"kangaroo has a pouch","diagnostic","have pouches"
"254",178,8,"doesnt carry malaria","free_production",5963,10,"moth","moth doesn't carry malaria",0,"moth doesn't carry malaria",NA,"dont carry malaria"
"255",179,8,"lays eggs","free_production",2881,11,"hen","hen lays eggs",0,"hen lays eggs",NA,"lay eggs"
"256",179,8,"lays eggs","free_production",2881,11,"hen","hen lays eggs",0,"hen lays eggs",NA,"lay eggs"
"257",179,8,"lays eggs","free_production",2881,11,"hen","hen lays eggs",0,"hen lays eggs",NA,"lay eggs"
"258",180,8,"is full-grown","free_production",5599,12,"elephant","elephant is full-grown",0,"elephant is full-grown",NA,"are full-grown"
"259",181,8,"is white","free_production",7781,13,"polarbear","polarbear is white",0,"polarbear is white",NA,"are white"
"260",181,8,"is white","free_production",7781,13,"polarbear","polarbear is white",0,"polarbear is white",NA,"are white"
"261",182,8,"is juvenile","free_production",9343,14,"rabbit","rabbit is juvenile",0,"rabbit is juvenile",NA,"are juvenile"
"262",183,8,"is red","free_production",2766,15,"fox","fox is red",0,"fox is red",NA,"are red"
"263",184,8,"has spots","free_production",5653,16,"leopard","leopard has spots",1,"leopard has spots",NA,"have spots"
"264",184,8,"has spots","free_production",5653,16,"leopard","leopard has spots",1,"leopard has spots",NA,"have spots"
"265",185,8,"eats people","free_production",10081,17,"lion","lion eats people",0,"lion eats people",NA,"eat people"
"266",186,8,"doesnt attack swimmers","free_production",4840,18,"dolphin","dolphin doesn't attack swimmers",0,"dolphin doesn't attack swimmers",NA,"dont attack swimmers"
"267",187,8,"is male","free_production",8194,19,"rooster","rooster is male",0,"rooster is male",NA,"are male"
"268",188,8,"is female","free_production",2884,20,"hen","hen is female",0,"hen is female",NA,"are female"
"269",189,8,"has a mane","free_production",7554,21,"horse","horse has a mane",0,"horse has a mane",NA,"have manes"
"270",189,8,"has a mane","free_production",7554,21,"horse","horse has a mane",0,"horse has a mane",NA,"have manes"
"271",190,9,"is full-grown","free_production",5466,1,"dog","dog is full-grown",0,"dog is full-grown",NA,"are full-grown"
"272",191,9,"has spots","free_production",6468,2,"giraffe","giraffe has spots",0,"giraffe has spots",NA,"have spots"
"273",191,9,"has spots","free_production",6468,2,"giraffe","giraffe has spots",0,"giraffe has spots",NA,"have spots"
"274",192,9,"attacks swimmers","free_production",2508,3,"shark","shark attacks swimmers",1,"shark attacks swimmers",NA,"attack swimmers"
"275",192,9,"attacks swimmers","free_production",2508,3,"shark","shark attacks swimmers",1,"shark attacks swimmers",NA,"attack swimmers"
"276",193,9,"is red","free_production",8483,4,"babboon","babboon is red",0,"babboon is red",NA,"are red"
"277",194,9,"has a pouch","free_production",2822,5,"kangaroo","kangaroo has a pouch",1,"kangaroo has a pouch","diagnostic","have pouches"
"278",194,9,"has a pouch","free_production",2822,5,"kangaroo","kangaroo has a pouch",1,"kangaroo has a pouch","diagnostic","have pouches"
"279",195,9,"lays eggs","free_production",2812,6,"spider","spider lays eggs",0,"spider lays eggs",NA,"lay eggs"
"280",195,9,"lays eggs","free_production",2812,6,"spider","spider lays eggs",0,"spider lays eggs",NA,"lay eggs"
"281",195,9,"lays eggs","free_production",2812,6,"spider","spider lays eggs",0,"spider lays eggs",NA,"lay eggs"
"282",196,9,"doesnt have beautiful feathers","free_production",7109,7,"sparrow","sparrow doesn't have beautiful feathers",0,"sparrow doesn't have beautiful feathers",NA,"dont have beautiful feathers"
"283",197,9,"eats people","free_production",5193,8,"alligator","alligator eats people",0,"alligator eats people",NA,"eat people"
"284",198,9,"is juvenile","free_production",7529,9,"hyena","hyena is juvenile",0,"hyena is juvenile",NA,"are juvenile"
"285",199,9,"is white","free_production",5487,10,"lemur","lemur is white",0,"lemur is white",NA,"are white"
"286",199,9,"is white","free_production",5487,10,"lemur","lemur is white",0,"lemur is white",NA,"are white"
"287",200,9,"doesnt eat people","free_production",7834,11,"guppie","guppie doesn't eat people",0,"guppie doesn't eat people",NA,"dont eat people"
"288",201,9,"has beautiful feathers","free_production",2978,12,"peacock","peacock has beautiful feathers",1,"peacock has beautiful feathers",NA,"have beautiful feathers"
"289",202,9,"carries Lyme disease","free_production",4214,13,"tick","tick carries Lyme disease",1,"tick carries Lyme disease","diagnostic","carry Lyme disease"
"290",203,9,"is female","free_production",3723,14,"cat","cat is female",0,"cat is female",NA,"are female"
"291",204,9,"doesnt carry Lyme disease","free_production",2842,15,"dog","dog doesn't carry Lyme disease",0,"dog doesn't carry Lyme disease",NA,"dont carry Lyme disease"
"292",205,9,"doesnt carry malaria","free_production",5949,16,"ostrich","ostrich doesn't carry malaria",0,"ostrich doesn't carry malaria",NA,"dont carry malaria"
"293",206,9,"carries malaria","free_production",3758,17,"mosquito","mosquito carries malaria",1,"mosquito carries malaria","diagnostic","carry malaria"
"294",206,9,"carries malaria","free_production",3758,17,"mosquito","mosquito carries malaria",1,"mosquito carries malaria","diagnostic","carry malaria"
"295",207,9,"doesnt attack swimmers","free_production",5907,18,"starfish","starfish doesn't attack swimmers",0,"starfish doesn't attack swimmers",NA,"dont attack swimmers"
"296",208,9,"has a mane","free_production",3034,19,"lion","lion has a mane",1,"lion has a mane","diagnostic","have manes"
"297",208,9,"has a mane","free_production",3034,19,"lion","lion has a mane",1,"lion has a mane","diagnostic","have manes"
"298",209,9,"is male","free_production",5523,20,"seahorse","seahorse is male",0,"seahorse is male",NA,"are male"
"299",210,9,"has wings","free_production",7169,21,"bird","bird has wings",0,"bird has wings",NA,"have wings"
"300",210,9,"has wings","free_production",7169,21,"bird","bird has wings",0,"bird has wings",NA,"have wings"
"301",211,10,"doesnt attack swimmers","free_production",10226,1,"fish","fish doesn't attack swimmers",0,"fish doesn't attack swimmers",NA,"dont attack swimmers"
"302",212,10,"is juvenile","free_production",6893,2,"maggot","maggot is juvenile",0,"maggot is juvenile",NA,"are juvenile"
"303",213,10,"doesnt eat people","free_production",5023,3,"cow","cow doesn't eat people",0,"cow doesn't eat people",NA,"dont eat people"
"304",214,10,"is white","free_production",8240,4,"ermine","ermine is white",0,"ermine is white",NA,"are white"
"305",214,10,"is white","free_production",8240,4,"ermine","ermine is white",0,"ermine is white",NA,"are white"
"306",215,10,"doesnt have beautiful feathers","free_production",6570,5,"sparrow","sparrow doesn't have beautiful feathers",0,"sparrow doesn't have beautiful feathers",NA,"dont have beautiful feathers"
"307",216,10,"eats people","free_production",5298,6,"alligator","alligator eats people",0,"alligator eats people",NA,"eat people"
"308",217,10,"has a pouch","free_production",19910,7,"echidna","echidna has a pouch",0,"echidna has a pouch",NA,"have pouches"
"309",217,10,"has a pouch","free_production",19910,7,"echidna","echidna has a pouch",0,"echidna has a pouch",NA,"have pouches"
"310",218,10,"doesnt carry malaria","free_production",6302,8,"cat","cat doesn't carry malaria",0,"cat doesn't carry malaria",NA,"dont carry malaria"
"311",219,10,"attacks swimmers","free_production",6501,9,"jellyfish","jellyfish attacks swimmers",0,"jellyfish attacks swimmers",NA,"attack swimmers"
"312",219,10,"attacks swimmers","free_production",6501,9,"jellyfish","jellyfish attacks swimmers",0,"jellyfish attacks swimmers",NA,"attack swimmers"
"313",220,10,"has beautiful feathers","free_production",7533,10,"lovebird","lovebird has beautiful feathers",0,"lovebird has beautiful feathers",NA,"have beautiful feathers"
"314",221,10,"has wings","free_production",11285,11,"starling","starling has wings",0,"starling has wings",NA,"have wings"
"315",221,10,"has wings","free_production",11285,11,"starling","starling has wings",0,"starling has wings",NA,"have wings"
"316",222,10,"carries Lyme disease","free_production",3118,12,"deer","deer carries Lyme disease",0,"deer carries Lyme disease",NA,"carry Lyme disease"
"317",223,10,"doesnt carry Lyme disease","free_production",4168,13,"bear","bear doesn't carry Lyme disease",0,"bear doesn't carry Lyme disease",NA,"dont carry Lyme disease"
"318",224,10,"is male","free_production",3768,14,"bull","bull is male",0,"bull is male",NA,"are male"
"319",225,10,"is red","free_production",3905,15,"fox","fox is red",0,"fox is red",NA,"are red"
"320",226,10,"carries malaria","free_production",3858,16,"mosquito","mosquito carries malaria",1,"mosquito carries malaria","diagnostic","carry malaria"
"321",226,10,"carries malaria","free_production",3858,16,"mosquito","mosquito carries malaria",1,"mosquito carries malaria","diagnostic","carry malaria"
"322",227,10,"is full-grown","free_production",6028,17,"fly","fly is full-grown",0,"fly is full-grown",NA,"are full-grown"
"323",228,10,"lays eggs","free_production",4495,18,"echidna","echidna lays eggs",0,"echidna lays eggs",NA,"lay eggs"
"324",228,10,"lays eggs","free_production",4495,18,"echidna","echidna lays eggs",0,"echidna lays eggs",NA,"lay eggs"
"325",228,10,"lays eggs","free_production",4495,18,"echidna","echidna lays eggs",0,"echidna lays eggs",NA,"lay eggs"
"326",229,10,"is female","free_production",9568,19,"cow","cow is female",0,"cow is female",NA,"are female"
"327",230,10,"has a mane","free_production",3710,20,"zebra","zebra has a mane",0,"zebra has a mane",NA,"have manes"
"328",230,10,"has a mane","free_production",3710,20,"zebra","zebra has a mane",0,"zebra has a mane",NA,"have manes"
"329",231,10,"has spots","free_production",3621,21,"leopard","leopard has spots",1,"leopard has spots",NA,"have spots"
"330",231,10,"has spots","free_production",3621,21,"leopard","leopard has spots",1,"leopard has spots",NA,"have spots"
"331",232,11,"carries malaria","free_production",6567,1,"mosquito","mosquito carries malaria",1,"mosquito carries malaria","diagnostic","carry malaria"
"332",232,11,"carries malaria","free_production",6567,1,"mosquito","mosquito carries malaria",1,"mosquito carries malaria","diagnostic","carry malaria"
"333",233,11,"is juvenile","free_production",6371,2,"bat","bat is juvenile",0,"bat is juvenile",NA,"are juvenile"
"334",234,11,"is white","free_production",5836,3,"cat","cat is white",0,"cat is white",NA,"are white"
"335",234,11,"is white","free_production",5836,3,"cat","cat is white",0,"cat is white",NA,"are white"
"336",235,11,"attacks swimmers","free_production",5060,4,"shark","shark attacks swimmers",1,"shark attacks swimmers",NA,"attack swimmers"
"337",235,11,"attacks swimmers","free_production",5060,4,"shark","shark attacks swimmers",1,"shark attacks swimmers",NA,"attack swimmers"
"338",236,11,"doesnt attack swimmers","free_production",5273,5,"ba","bas doesn't attack swimmers",0,"ba doesn't attack swimmers",NA,"dont attack swimmers"
"339",237,11,"doesnt eat people","free_production",10889,6,"bird","bird doesn't eat people",0,"bird doesn't eat people",NA,"dont eat people"
"340",238,11,"doesnt carry Lyme disease","free_production",5027,7,"dog","dog doesn't carry Lyme disease",0,"dog doesn't carry Lyme disease",NA,"dont carry Lyme disease"
"341",239,11,"doesnt carry malaria","free_production",4871,8,"bird","bird doesn't carry malaria",0,"bird doesn't carry malaria",NA,"dont carry malaria"
"342",240,11,"is full-grown","free_production",3106,9,"cow","cow is full-grown",0,"cow is full-grown",NA,"are full-grown"
"343",241,11,"has spots","free_production",7520,10,"leopard","leopard has spots",1,"leopard has spots",NA,"have spots"
"344",241,11,"has spots","free_production",7520,10,"leopard","leopard has spots",1,"leopard has spots",NA,"have spots"
"345",242,11,"doesnt have beautiful feathers","free_production",4704,11,"zebra","zebra doesn't have beautiful feathers",0,"zebra doesn't have beautiful feathers",NA,"dont have beautiful feathers"
"346",243,11,"lays eggs","free_production",4266,12,"chicken","chicken lays eggs",0,"chicken lays eggs",NA,"lay eggs"
"347",243,11,"lays eggs","free_production",4266,12,"chicken","chicken lays eggs",0,"chicken lays eggs",NA,"lay eggs"
"348",243,11,"lays eggs","free_production",4266,12,"chicken","chicken lays eggs",0,"chicken lays eggs",NA,"lay eggs"
"349",244,11,"has beautiful feathers","free_production",5343,13,"peacock","peacock has beautiful feathers",1,"peacock has beautiful feathers",NA,"have beautiful feathers"
"350",245,11,"has a mane","free_production",4506,14,"horse","horse has a mane",0,"horse has a mane",NA,"have manes"
"351",245,11,"has a mane","free_production",4506,14,"horse","horse has a mane",0,"horse has a mane",NA,"have manes"
"352",246,11,"has wings","free_production",5987,15,"mosquito","mosquito has wings",0,"mosquito has wings",NA,"have wings"
"353",246,11,"has wings","free_production",5987,15,"mosquito","mosquito has wings",0,"mosquito has wings",NA,"have wings"
"354",247,11,"eats people","free_production",4549,16,"shark","shark eats people",0,"shark eats people",NA,"eat people"
"355",248,11,"has a pouch","free_production",5189,17,"kangaroo","kangaroo has a pouch",1,"kangaroo has a pouch","diagnostic","have pouches"
"356",248,11,"has a pouch","free_production",5189,17,"kangaroo","kangaroo has a pouch",1,"kangaroo has a pouch","diagnostic","have pouches"
"357",249,11,"is red","free_production",12655,18,"bird","bird is red",0,"bird is red",NA,"are red"
"358",250,11,"is male","free_production",3964,19,"mule","mule is male",0,"mule is male",NA,"are male"
"359",251,11,"carries Lyme disease","free_production",3348,20,"tick","tick carries Lyme disease",1,"tick carries Lyme disease","diagnostic","carry Lyme disease"
"360",252,11,"is female","free_production",3465,21,"cow","cow is female",0,"cow is female",NA,"are female"
"361",253,12,"carries malaria","free_production",6535,1,"mosquito","mosquito carries malaria",1,"mosquito carries malaria","diagnostic","carry malaria"
"362",253,12,"carries malaria","free_production",6535,1,"mosquito","mosquito carries malaria",1,"mosquito carries malaria","diagnostic","carry malaria"
"363",254,12,"has a pouch","free_production",5495,2,"kangaroo","kangaroo has a pouch",1,"kangaroo has a pouch","diagnostic","have pouches"
"364",254,12,"has a pouch","free_production",5495,2,"kangaroo","kangaroo has a pouch",1,"kangaroo has a pouch","diagnostic","have pouches"
"365",255,12,"has wings","free_production",3324,3,"bat","bat has wings",0,"bat has wings",NA,"have wings"
"366",255,12,"has wings","free_production",3324,3,"bat","bat has wings",0,"bat has wings",NA,"have wings"
"367",256,12,"attacks swimmers","free_production",6059,4,"shark","shark attacks swimmers",1,"shark attacks swimmers",NA,"attack swimmers"
"368",256,12,"attacks swimmers","free_production",6059,4,"shark","shark attacks swimmers",1,"shark attacks swimmers",NA,"attack swimmers"
"369",257,12,"carries Lyme disease","free_production",4323,5,"tick","tick carries Lyme disease",1,"tick carries Lyme disease","diagnostic","carry Lyme disease"
"370",258,12,"doesnt carry Lyme disease","free_production",6595,6,"fly","fly doesn't carry Lyme disease",0,"fly doesn't carry Lyme disease",NA,"dont carry Lyme disease"
"371",259,12,"is red","free_production",4857,7,"fox","fox is red",0,"fox is red",NA,"are red"
"372",260,12,"doesnt eat people","free_production",30479,8,"squirrel","squirrel doesn't eat people",0,"squirrel doesn't eat people",NA,"dont eat people"
"373",261,12,"is juvenile","free_production",8560,9,"puppy","puppy is juvenile",0,"puppy is juvenile",NA,"are juvenile"
"374",262,12,"eats people","free_production",3423,10,"bear","bear eats people",0,"bear eats people",NA,"eat people"
"375",263,12,"doesnt attack swimmers","free_production",8844,11,"goldfish","goldfish doesn't attack swimmers",0,"goldfish doesn't attack swimmers",NA,"dont attack swimmers"
"376",264,12,"lays eggs","free_production",4349,12,"chicken","chicken lays eggs",0,"chicken lays eggs",NA,"lay eggs"
"377",264,12,"lays eggs","free_production",4349,12,"chicken","chicken lays eggs",0,"chicken lays eggs",NA,"lay eggs"
"378",264,12,"lays eggs","free_production",4349,12,"chicken","chicken lays eggs",0,"chicken lays eggs",NA,"lay eggs"
"379",265,12,"has a mane","free_production",4625,13,"cat","cat has a mane",0,"cat has a mane",NA,"have manes"
"380",265,12,"has a mane","free_production",4625,13,"cat","cat has a mane",0,"cat has a mane",NA,"have manes"
"381",266,12,"has beautiful feathers","free_production",4583,14,"peacock","peacock has beautiful feathers",1,"peacock has beautiful feathers",NA,"have beautiful feathers"
"382",267,12,"is white","free_production",4428,15,"owl","owl is white",0,"owl is white",NA,"are white"
"383",267,12,"is white","free_production",4428,15,"owl","owl is white",0,"owl is white",NA,"are white"
"384",268,12,"is female","free_production",3691,16,"doe","doe is female",0,"doe is female",NA,"are female"
"385",269,12,"is full-grown","free_production",7015,17,"buck","buck is full-grown",0,"buck is full-grown",NA,"are full-grown"
"386",270,12,"doesnt have beautiful feathers","free_production",16603,18,"rat","rat doesn't have beautiful feathers",0,"rat doesn't have beautiful feathers",NA,"dont have beautiful feathers"
"387",271,12,"is male","free_production",19353,19,"ram","ram is male",0,"ram is male",NA,"are male"
"388",272,12,"has spots","free_production",13528,20,"cheetah","cheetah has spots",0,"cheetah has spots",NA,"have spots"
"389",272,12,"has spots","free_production",13528,20,"cheetah","cheetah has spots",0,"cheetah has spots",NA,"have spots"
"390",273,12,"doesnt carry malaria","free_production",8284,21,"stork","stork doesn't carry malaria",0,"stork doesn't carry malaria",NA,"dont carry malaria"
"391",274,13,"carries Lyme disease","free_production",5934,1,"tick","tick carries Lyme disease",1,"tick carries Lyme disease","diagnostic","carry Lyme disease"
"392",275,13,"is full-grown","free_production",7398,2,"cow","cow is full-grown",0,"cow is full-grown",NA,"are full-grown"
"393",276,13,"is juvenile","free_production",8999,3,"fly","fly is juvenile",0,"fly is juvenile",NA,"are juvenile"
"394",277,13,"eats people","free_production",22699,4,"lion","lion eats people",0,"lion eats people",NA,"eat people"
"395",278,13,"is female","free_production",6630,5,"deer","deer is female",0,"deer is female",NA,"are female"
"396",279,13,"has beautiful feathers","free_production",8618,6,"peacock","peacock has beautiful feathers",1,"peacock has beautiful feathers",NA,"have beautiful feathers"
"397",280,13,"has spots","free_production",9340,7,"cow","cow has spots",0,"cow has spots",NA,"have spots"
"398",280,13,"has spots","free_production",9340,7,"cow","cow has spots",0,"cow has spots",NA,"have spots"
"399",281,13,"is male","free_production",5170,8,"bull","bull is male",0,"bull is male",NA,"are male"
"400",282,13,"has a mane","free_production",6791,9,"lion","lion has a mane",1,"lion has a mane","diagnostic","have manes"
"401",282,13,"has a mane","free_production",6791,9,"lion","lion has a mane",1,"lion has a mane","diagnostic","have manes"
"402",283,13,"lays eggs","free_production",5007,10,"snake","snake lays eggs",0,"snake lays eggs",NA,"lay eggs"
"403",283,13,"lays eggs","free_production",5007,10,"snake","snake lays eggs",0,"snake lays eggs",NA,"lay eggs"
"404",283,13,"lays eggs","free_production",5007,10,"snake","snake lays eggs",0,"snake lays eggs",NA,"lay eggs"
"405",284,13,"carries malaria","free_production",8671,11,"mosquito","mosquito carries malaria",1,"mosquito carries malaria","diagnostic","carry malaria"
"406",284,13,"carries malaria","free_production",8671,11,"mosquito","mosquito carries malaria",1,"mosquito carries malaria","diagnostic","carry malaria"
"407",285,13,"doesnt attack swimmers","free_production",8936,12,"dog","dog doesn't attack swimmers",0,"dog doesn't attack swimmers",NA,"dont attack swimmers"
"408",286,13,"doesnt have beautiful feathers","free_production",9649,13,"crow","crow doesn't have beautiful feathers",0,"crow doesn't have beautiful feathers",NA,"dont have beautiful feathers"
"409",287,13,"is red","free_production",47966,14,"robin","robin is red",0,"robin is red",NA,"are red"
"410",288,13,"has wings","free_production",6596,15,"cardinal","cardinal has wings",0,"cardinal has wings",NA,"have wings"
"411",288,13,"has wings","free_production",6596,15,"cardinal","cardinal has wings",0,"cardinal has wings",NA,"have wings"
"412",289,13,"attacks swimmers","free_production",5357,16,"shark","shark attacks swimmers",1,"shark attacks swimmers",NA,"attack swimmers"
"413",289,13,"attacks swimmers","free_production",5357,16,"shark","shark attacks swimmers",1,"shark attacks swimmers",NA,"attack swimmers"
"414",290,13,"doesnt carry malaria","free_production",10278,17,"cow","cow doesn't carry malaria",0,"cow doesn't carry malaria",NA,"dont carry malaria"
"415",291,13,"doesnt eat people","free_production",5707,18,"cow","cow doesn't eat people",0,"cow doesn't eat people",NA,"dont eat people"
"416",292,13,"has a pouch","free_production",11095,19,"koala","koala has a pouch",0,"koala has a pouch",NA,"have pouches"
"417",292,13,"has a pouch","free_production",11095,19,"koala","koala has a pouch",0,"koala has a pouch",NA,"have pouches"
"418",293,13,"doesnt carry Lyme disease","free_production",10982,20,"cow","cow doesn't carry Lyme disease",0,"cow doesn't carry Lyme disease",NA,"dont carry Lyme disease"
"419",294,13,"is white","free_production",7358,21,"polarbear","polarbear is white",0,"polarbear is white",NA,"are white"
"420",294,13,"is white","free_production",7358,21,"polarbear","polarbear is white",0,"polarbear is white",NA,"are white"
"421",295,14,"carries Lyme disease","free_production",60733,1,"deer","deer carries Lyme disease",0,"deer carries Lyme disease",NA,"carry Lyme disease"
"422",296,14,"has spots","free_production",10990,2,"leopard","leopard has spots",1,"leopard has spots",NA,"have spots"
"423",296,14,"has spots","free_production",10990,2,"leopard","leopard has spots",1,"leopard has spots",NA,"have spots"
"424",297,14,"lays eggs","free_production",11470,3,"chicken","chicken lays eggs",0,"chicken lays eggs",NA,"lay eggs"
"425",297,14,"lays eggs","free_production",11470,3,"chicken","chicken lays eggs",0,"chicken lays eggs",NA,"lay eggs"
"426",297,14,"lays eggs","free_production",11470,3,"chicken","chicken lays eggs",0,"chicken lays eggs",NA,"lay eggs"
"427",298,14,"doesnt have beautiful feathers","free_production",22079,4,"dog","dog doesn't have beautiful feathers",0,"dog doesn't have beautiful feathers",NA,"dont have beautiful feathers"
"428",299,14,"has a pouch","free_production",40595,5,"kangaroo","kangaroo has a pouch",1,"kangaroo has a pouch","diagnostic","have pouches"
"429",299,14,"has a pouch","free_production",40595,5,"kangaroo","kangaroo has a pouch",1,"kangaroo has a pouch","diagnostic","have pouches"
"430",300,14,"is full-grown","free_production",12025,6,"cow","cow is full-grown",0,"cow is full-grown",NA,"are full-grown"
"431",301,14,"carries malaria","free_production",37505,7,"mosquito","mosquito carries malaria",1,"mosquito carries malaria","diagnostic","carry malaria"
"432",301,14,"carries malaria","free_production",37505,7,"mosquito","mosquito carries malaria",1,"mosquito carries malaria","diagnostic","carry malaria"
"433",302,14,"doesnt attack swimmers","free_production",21025,8,"goldfish","goldfish doesn't attack swimmers",0,"goldfish doesn't attack swimmers",NA,"dont attack swimmers"
"434",303,14,"is red","free_production",8642,9,"goldfish","goldfish is red",0,"goldfish is red",NA,"are red"
"435",304,14,"doesnt carry malaria","free_production",6754,10,"cat","cat doesn't carry malaria",0,"cat doesn't carry malaria",NA,"dont carry malaria"
"436",305,14,"is male","free_production",10906,11,"dog","dog is male",0,"dog is male",NA,"are male"
"437",306,14,"is white","free_production",17665,12,"horse","horse is white",0,"horse is white",NA,"are white"
"438",306,14,"is white","free_production",17665,12,"horse","horse is white",0,"horse is white",NA,"are white"
"439",307,14,"has beautiful feathers","free_production",33624,13,"peacock","peacock has beautiful feathers",1,"peacock has beautiful feathers",NA,"have beautiful feathers"
"440",308,14,"doesnt carry Lyme disease","free_production",9983,14,"cat","cat doesn't carry Lyme disease",0,"cat doesn't carry Lyme disease",NA,"dont carry Lyme disease"
"441",309,14,"doesnt eat people","free_production",9779,15,"fly","fly doesn't eat people",0,"fly doesn't eat people",NA,"dont eat people"
"442",310,14,"has wings","free_production",6920,16,"bird","bird has wings",0,"bird has wings",NA,"have wings"
"443",310,14,"has wings","free_production",6920,16,"bird","bird has wings",0,"bird has wings",NA,"have wings"
"444",311,14,"eats people","free_production",15912,17,"shark","shark eats people",0,"shark eats people",NA,"eat people"
"445",312,14,"has a mane","free_production",5722,18,"lion","lion has a mane",1,"lion has a mane","diagnostic","have manes"
"446",312,14,"has a mane","free_production",5722,18,"lion","lion has a mane",1,"lion has a mane","diagnostic","have manes"
"447",313,14,"is juvenile","free_production",10547,19,"tiger","tiger is juvenile",0,"tiger is juvenile",NA,"are juvenile"
"448",314,14,"attacks swimmers","free_production",6411,20,"shark","shark attacks swimmers",1,"shark attacks swimmers",NA,"attack swimmers"
"449",314,14,"attacks swimmers","free_production",6411,20,"shark","shark attacks swimmers",1,"shark attacks swimmers",NA,"attack swimmers"
"450",315,14,"is female","free_production",6287,21,"dog","dog is female",0,"dog is female",NA,"are female"
"451",316,15,"is red","free_production",9124,1,"ladybug","ladybug is red",0,"ladybug is red",NA,"are red"
"452",317,15,"has a pouch","free_production",5827,2,"kangaroo","kangaroo has a pouch",1,"kangaroo has a pouch","diagnostic","have pouches"
"453",317,15,"has a pouch","free_production",5827,2,"kangaroo","kangaroo has a pouch",1,"kangaroo has a pouch","diagnostic","have pouches"
"454",318,15,"is male","free_production",5004,3,"dog","dog is male",0,"dog is male",NA,"are male"
"455",319,15,"is full-grown","free_production",9393,4,"bear","bear is full-grown",0,"bear is full-grown",NA,"are full-grown"
"456",320,15,"doesnt have beautiful feathers","free_production",14681,5,"crow","crow doesn't have beautiful feathers",0,"crow doesn't have beautiful feathers",NA,"dont have beautiful feathers"
"457",321,15,"doesnt attack swimmers","free_production",9054,6,"bird","bird doesn't attack swimmers",0,"bird doesn't attack swimmers",NA,"dont attack swimmers"
"458",322,15,"doesnt eat people","free_production",6234,7,"elephant","elephant doesn't eat people",0,"elephant doesn't eat people",NA,"dont eat people"
"459",323,15,"lays eggs","free_production",6121,8,"cat","cat lays eggs",0,"cat lays eggs",NA,"lay eggs"
"460",323,15,"lays eggs","free_production",6121,8,"cat","cat lays eggs",0,"cat lays eggs",NA,"lay eggs"
"461",323,15,"lays eggs","free_production",6121,8,"cat","cat lays eggs",0,"cat lays eggs",NA,"lay eggs"
"462",324,15,"carries malaria","free_production",10440,9,"mosquito","mosquito carries malaria",1,"mosquito carries malaria","diagnostic","carry malaria"
"463",324,15,"carries malaria","free_production",10440,9,"mosquito","mosquito carries malaria",1,"mosquito carries malaria","diagnostic","carry malaria"
"464",325,15,"is female","free_production",10932,10,"giraffe","giraffe is female",0,"giraffe is female",NA,"are female"
"465",326,15,"has wings","free_production",5266,11,"bird","bird has wings",0,"bird has wings",NA,"have wings"
"466",326,15,"has wings","free_production",5266,11,"bird","bird has wings",0,"bird has wings",NA,"have wings"
"467",327,15,"is juvenile","free_production",11774,12,"worm","worm is juvenile",0,"worm is juvenile",NA,"are juvenile"
"468",328,15,"has beautiful feathers","free_production",4538,13,"ostrich","ostrich has beautiful feathers",0,"ostrich has beautiful feathers",NA,"have beautiful feathers"
"469",329,15,"doesnt carry Lyme disease","free_production",6216,14,"tiger","tiger doesn't carry Lyme disease",0,"tiger doesn't carry Lyme disease",NA,"dont carry Lyme disease"
"470",330,15,"is white","free_production",5876,15,"leopard","leopard is white",0,"leopard is white",NA,"are white"
"471",330,15,"is white","free_production",5876,15,"leopard","leopard is white",0,"leopard is white",NA,"are white"
"472",331,15,"has spots","free_production",6811,16,"leopard","leopard has spots",1,"leopard has spots",NA,"have spots"
"473",331,15,"has spots","free_production",6811,16,"leopard","leopard has spots",1,"leopard has spots",NA,"have spots"
"474",332,15,"carries Lyme disease","free_production",6139,17,"mosquito","mosquito carries Lyme disease",0,"mosquito carries Lyme disease",NA,"carry Lyme disease"
"475",333,15,"has a mane","free_production",5310,18,"lion","lion has a mane",1,"lion has a mane","diagnostic","have manes"
"476",333,15,"has a mane","free_production",5310,18,"lion","lion has a mane",1,"lion has a mane","diagnostic","have manes"
"477",334,15,"doesnt carry malaria","free_production",10308,19,"tiger","tiger doesn't carry malaria",0,"tiger doesn't carry malaria",NA,"dont carry malaria"
"478",335,15,"eats people","free_production",23002,20,"shark","shark eats people",0,"shark eats people",NA,"eat people"
"479",336,15,"attacks swimmers","free_production",3852,21,"shark","shark attacks swimmers",1,"shark attacks swimmers",NA,"attack swimmers"
"480",336,15,"attacks swimmers","free_production",3852,21,"shark","shark attacks swimmers",1,"shark attacks swimmers",NA,"attack swimmers"
"481",337,16,"is full-grown","free_production",12948,1,"butterfly","butterfly is full-grown",0,"butterfly is full-grown",NA,"are full-grown"
"482",338,16,"has spots","free_production",16317,2,"cheetah","cheetah has spots",0,"cheetah has spots",NA,"have spots"
"483",338,16,"has spots","free_production",16317,2,"cheetah","cheetah has spots",0,"cheetah has spots",NA,"have spots"
"484",339,16,"is red","free_production",5630,3,"ladybug","ladybug is red",0,"ladybug is red",NA,"are red"
"485",340,16,"has a pouch","free_production",5655,4,"kangaroo","kangaroo has a pouch",1,"kangaroo has a pouch","diagnostic","have pouches"
"486",340,16,"has a pouch","free_production",5655,4,"kangaroo","kangaroo has a pouch",1,"kangaroo has a pouch","diagnostic","have pouches"
"487",341,16,"doesnt eat people","free_production",8784,5,"horse","horse doesn't eat people",0,"horse doesn't eat people",NA,"dont eat people"
"488",342,16,"has a mane","free_production",7125,6,"lion","lion has a mane",1,"lion has a mane","diagnostic","have manes"
"489",342,16,"has a mane","free_production",7125,6,"lion","lion has a mane",1,"lion has a mane","diagnostic","have manes"
"490",343,16,"is white","free_production",8671,7,"polarbear","polarbear is white",0,"polarbear is white",NA,"are white"
"491",343,16,"is white","free_production",8671,7,"polarbear","polarbear is white",0,"polarbear is white",NA,"are white"
"492",344,16,"doesnt carry Lyme disease","free_production",11183,8,"panda","panda doesn't carry Lyme disease",0,"panda doesn't carry Lyme disease",NA,"dont carry Lyme disease"
"493",345,16,"eats people","free_production",7888,9,"tiger","tiger eats people",1,"tiger eats people",NA,"eat people"
"494",346,16,"has beautiful feathers","free_production",4631,10,"peacock","peacock has beautiful feathers",1,"peacock has beautiful feathers",NA,"have beautiful feathers"
"495",347,16,"has wings","free_production",4991,11,"fly","fly has wings",0,"fly has wings",NA,"have wings"
"496",347,16,"has wings","free_production",4991,11,"fly","fly has wings",0,"fly has wings",NA,"have wings"
"497",348,16,"doesnt attack swimmers","free_production",5848,12,"zebra","zebra doesn't attack swimmers",0,"zebra doesn't attack swimmers",NA,"dont attack swimmers"
"498",349,16,"attacks swimmers","free_production",3799,13,"shark","shark attacks swimmers",1,"shark attacks swimmers",NA,"attack swimmers"
"499",349,16,"attacks swimmers","free_production",3799,13,"shark","shark attacks swimmers",1,"shark attacks swimmers",NA,"attack swimmers"
"500",350,16,"lays eggs","free_production",5312,14,"seaturtle","seaturtle lays eggs",0,"seaturtle lays eggs",NA,"lay eggs"
"501",350,16,"lays eggs","free_production",5312,14,"seaturtle","seaturtle lays eggs",0,"seaturtle lays eggs",NA,"lay eggs"
"502",350,16,"lays eggs","free_production",5312,14,"seaturtle","seaturtle lays eggs",0,"seaturtle lays eggs",NA,"lay eggs"
"503",351,16,"is female","free_production",12072,15,"cat","cat is female",0,"cat is female",NA,"are female"
"504",352,16,"is juvenile","free_production",11292,16,"aligator","aligator is juvenile",0,"aligator is juvenile",NA,"are juvenile"
"505",353,16,"doesnt carry malaria","free_production",12424,17,"sealion","sealion doesn't carry malaria",0,"sealion doesn't carry malaria",NA,"dont carry malaria"
"506",354,16,"carries Lyme disease","free_production",6536,18,"tick","tick carries Lyme disease",1,"tick carries Lyme disease","diagnostic","carry Lyme disease"
"507",355,16,"doesnt have beautiful feathers","free_production",18359,19,"whale","whale doesn't have beautiful feathers",0,"whale doesn't have beautiful feathers",NA,"dont have beautiful feathers"
"508",356,16,"carries malaria","free_production",12312,20,"mosquito","mosquito carries malaria",1,"mosquito carries malaria","diagnostic","carry malaria"
"509",356,16,"carries malaria","free_production",12312,20,"mosquito","mosquito carries malaria",1,"mosquito carries malaria","diagnostic","carry malaria"
"510",357,16,"is male","free_production",19255,21,"ram","ram is male",0,"ram is male",NA,"are male"
"511",358,17,"is full-grown","free_production",8544,1,"preyingmatni","preyingmatni is full-grown",0,"preyingmatni is full-grown",NA,"are full-grown"
"512",359,17,"has spots","free_production",22777,2,"ladybug","ladybug has spots",0,"ladybug has spots",NA,"have spots"
"513",359,17,"has spots","free_production",22777,2,"ladybug","ladybug has spots",0,"ladybug has spots",NA,"have spots"
"514",360,17,"has wings","free_production",5629,3,"mosquito","mosquito has wings",0,"mosquito has wings",NA,"have wings"
"515",360,17,"has wings","free_production",5629,3,"mosquito","mosquito has wings",0,"mosquito has wings",NA,"have wings"
"516",361,17,"is red","free_production",5368,4,"blackwidow","blackwidow is red",0,"blackwidow is red",NA,"are red"
"517",362,17,"has beautiful feathers","free_production",14840,5,"bluemacaw","bluemacaw has beautiful feathers",0,"bluemacaw has beautiful feathers",NA,"have beautiful feathers"
"518",363,17,"is juvenile","free_production",6475,6,"ant","ant is juvenile",0,"ant is juvenile",NA,"are juvenile"
"519",364,17,"is female","free_production",7462,7,"beetle","beetle is female",0,"beetle is female",NA,"are female"
"520",365,17,"eats people","free_production",5229,8,"termite","termite eats people",0,"termite eats people",NA,"eat people"
"521",366,17,"lays eggs","free_production",9189,9,"duck","duck lays eggs",0,"duck lays eggs",NA,"lay eggs"
"522",366,17,"lays eggs","free_production",9189,9,"duck","duck lays eggs",0,"duck lays eggs",NA,"lay eggs"
"523",366,17,"lays eggs","free_production",9189,9,"duck","duck lays eggs",0,"duck lays eggs",NA,"lay eggs"
"524",367,17,"carries malaria","free_production",6859,10,"mosquito","mosquito carries malaria",1,"mosquito carries malaria","diagnostic","carry malaria"
"525",367,17,"carries malaria","free_production",6859,10,"mosquito","mosquito carries malaria",1,"mosquito carries malaria","diagnostic","carry malaria"
"526",368,17,"is white","free_production",20212,11,"larva","larva is white",0,"larva is white",NA,"are white"
"527",368,17,"is white","free_production",20212,11,"larva","larva is white",0,"larva is white",NA,"are white"
"528",369,17,"doesnt carry malaria","free_production",7239,12,"wasp","wasp doesn't carry malaria",0,"wasp doesn't carry malaria",NA,"dont carry malaria"
"529",370,17,"doesnt carry Lyme disease","free_production",4042,13,"bee","bee doesn't carry Lyme disease",0,"bee doesn't carry Lyme disease",NA,"dont carry Lyme disease"
"530",371,17,"doesnt eat people","free_production",12209,14,"rollypolly","rollypolly doesn't eat people",0,"rollypolly doesn't eat people",NA,"dont eat people"
"531",372,17,"carries Lyme disease","free_production",5246,15,"tick","tick carries Lyme disease",1,"tick carries Lyme disease","diagnostic","carry Lyme disease"
"532",373,17,"doesnt attack swimmers","free_production",6859,16,"fly","fly doesn't attack swimmers",0,"fly doesn't attack swimmers",NA,"dont attack swimmers"
"533",374,17,"doesnt have beautiful feathers","free_production",4727,17,"lizard","lizard doesn't have beautiful feathers",0,"lizard doesn't have beautiful feathers",NA,"dont have beautiful feathers"
"534",375,17,"is male","free_production",3158,18,"dog","dog is male",0,"dog is male",NA,"are male"
"535",376,17,"attacks swimmers","free_production",3981,19,"leech","leech attacks swimmers",0,"leech attacks swimmers",NA,"attack swimmers"
"536",376,17,"attacks swimmers","free_production",3981,19,"leech","leech attacks swimmers",0,"leech attacks swimmers",NA,"attack swimmers"
"537",377,17,"has a mane","free_production",5531,20,"bee","bee has a mane",0,"bee has a mane",NA,"have manes"
"538",377,17,"has a mane","free_production",5531,20,"bee","bee has a mane",0,"bee has a mane",NA,"have manes"
"539",378,17,"has a pouch","free_production",5148,21,"kangaroo","kangaroo has a pouch",1,"kangaroo has a pouch","diagnostic","have pouches"
"540",378,17,"has a pouch","free_production",5148,21,"kangaroo","kangaroo has a pouch",1,"kangaroo has a pouch","diagnostic","have pouches"
"541",379,18,"has a mane","free_production",12516,1,"tiger","tiger has a mane",0,"tiger has a mane",NA,"have manes"
"542",379,18,"has a mane","free_production",12516,1,"tiger","tiger has a mane",0,"tiger has a mane",NA,"have manes"
"543",380,18,"doesnt have beautiful feathers","free_production",9944,2,"lizard","lizard doesn't have beautiful feathers",0,"lizard doesn't have beautiful feathers",NA,"dont have beautiful feathers"
"544",381,18,"doesnt carry Lyme disease","free_production",6413,3,"cat","cat doesn't carry Lyme disease",0,"cat doesn't carry Lyme disease",NA,"dont carry Lyme disease"
"545",382,18,"doesnt carry malaria","free_production",4818,4,"turkey","turkey doesn't carry malaria",0,"turkey doesn't carry malaria",NA,"dont carry malaria"
"546",383,18,"has wings","free_production",4894,5,"owl","owl has wings",0,"owl has wings",NA,"have wings"
"547",383,18,"has wings","free_production",4894,5,"owl","owl has wings",0,"owl has wings",NA,"have wings"
"548",384,18,"has a pouch","free_production",4614,6,"kangaroo","kangaroo has a pouch",1,"kangaroo has a pouch","diagnostic","have pouches"
"549",384,18,"has a pouch","free_production",4614,6,"kangaroo","kangaroo has a pouch",1,"kangaroo has a pouch","diagnostic","have pouches"
"550",385,18,"carries malaria","free_production",6928,7,"bear","bear carries malaria",0,"bear carries malaria",NA,"carry malaria"
"551",385,18,"carries malaria","free_production",6928,7,"bear","bear carries malaria",0,"bear carries malaria",NA,"carry malaria"
"552",386,18,"is white","free_production",7390,8,"panda","panda is white",0,"panda is white",NA,"are white"
"553",386,18,"is white","free_production",7390,8,"panda","panda is white",0,"panda is white",NA,"are white"
"554",387,18,"is male","free_production",3631,9,"bear","bear is male",0,"bear is male",NA,"are male"
"555",388,18,"doesnt attack swimmers","free_production",7779,10,"ba","bas doesn't attack swimmers",0,"ba doesn't attack swimmers",NA,"dont attack swimmers"
"556",389,18,"doesnt eat people","free_production",3148,11,"ba","bas doesn't eat people",0,"ba doesn't eat people",NA,"dont eat people"
"557",390,18,"is female","free_production",7404,12,"trout","trout is female",0,"trout is female",NA,"are female"
"558",391,18,"has spots","free_production",5450,13,"eel","eel has spots",0,"eel has spots",NA,"have spots"
"559",391,18,"has spots","free_production",5450,13,"eel","eel has spots",0,"eel has spots",NA,"have spots"
"560",392,18,"is full-grown","free_production",4324,14,"bear","bear is full-grown",0,"bear is full-grown",NA,"are full-grown"
"561",393,18,"is juvenile","free_production",9572,15,"cub","cub is juvenile",0,"cub is juvenile",NA,"are juvenile"
"562",394,18,"eats people","free_production",4241,16,"shark","shark eats people",0,"shark eats people",NA,"eat people"
"563",395,18,"is red","free_production",5269,17,"hippo","hippo is red",0,"hippo is red",NA,"are red"
"564",396,18,"has beautiful feathers","free_production",5418,18,"bluejay","bluejay has beautiful feathers",0,"bluejay has beautiful feathers",NA,"have beautiful feathers"
"565",397,18,"lays eggs","free_production",4434,19,"chicken","chicken lays eggs",0,"chicken lays eggs",NA,"lay eggs"
"566",397,18,"lays eggs","free_production",4434,19,"chicken","chicken lays eggs",0,"chicken lays eggs",NA,"lay eggs"
"567",397,18,"lays eggs","free_production",4434,19,"chicken","chicken lays eggs",0,"chicken lays eggs",NA,"lay eggs"
"568",398,18,"attacks swimmers","free_production",5346,20,"shark","shark attacks swimmers",1,"shark attacks swimmers",NA,"attack swimmers"
"569",398,18,"attacks swimmers","free_production",5346,20,"shark","shark attacks swimmers",1,"shark attacks swimmers",NA,"attack swimmers"
"570",399,18,"carries Lyme disease","free_production",9180,21,"skunk","skunk carries Lyme disease",0,"skunk carries Lyme disease",NA,"carry Lyme disease"
"571",400,19,"has wings","free_production",8393,1,"butterfly","butterfly has wings",0,"butterfly has wings",NA,"have wings"
"572",400,19,"has wings","free_production",8393,1,"butterfly","butterfly has wings",0,"butterfly has wings",NA,"have wings"
"573",401,19,"is juvenile","free_production",8820,2,"rabbit","rabbit is juvenile",0,"rabbit is juvenile",NA,"are juvenile"
"574",402,19,"has beautiful feathers","free_production",6895,3,"peacock","peacock has beautiful feathers",1,"peacock has beautiful feathers",NA,"have beautiful feathers"
"575",403,19,"is female","free_production",8417,4,"squirrel","squirrel is female",0,"squirrel is female",NA,"are female"
"576",404,19,"is full-grown","free_production",5014,5,"horse","horse is full-grown",0,"horse is full-grown",NA,"are full-grown"
"577",405,19,"is male","free_production",5810,6,"dog","dog is male",0,"dog is male",NA,"are male"
"578",406,19,"doesnt eat people","free_production",5742,7,"cat","cat doesn't eat people",0,"cat doesn't eat people",NA,"dont eat people"
"579",407,19,"is red","free_production",12641,8,"cardinal","cardinal is red",1,"cardinal is red",NA,"are red"
"580",408,19,"has a mane","free_production",4662,9,"horse","horse has a mane",0,"horse has a mane",NA,"have manes"
"581",408,19,"has a mane","free_production",4662,9,"horse","horse has a mane",0,"horse has a mane",NA,"have manes"
"582",409,19,"carries malaria","free_production",7591,10,"mosquito","mosquito carries malaria",1,"mosquito carries malaria","diagnostic","carry malaria"
"583",409,19,"carries malaria","free_production",7591,10,"mosquito","mosquito carries malaria",1,"mosquito carries malaria","diagnostic","carry malaria"
"584",410,19,"is white","free_production",4966,11,"sheep","sheep is white",0,"sheep is white",NA,"are white"
"585",410,19,"is white","free_production",4966,11,"sheep","sheep is white",0,"sheep is white",NA,"are white"
"586",411,19,"has a pouch","free_production",5070,12,"kangaroo","kangaroo has a pouch",1,"kangaroo has a pouch","diagnostic","have pouches"
"587",411,19,"has a pouch","free_production",5070,12,"kangaroo","kangaroo has a pouch",1,"kangaroo has a pouch","diagnostic","have pouches"
"588",412,19,"has spots","free_production",5723,13,"leopard","leopard has spots",1,"leopard has spots",NA,"have spots"
"589",412,19,"has spots","free_production",5723,13,"leopard","leopard has spots",1,"leopard has spots",NA,"have spots"
"590",413,19,"eats people","free_production",9684,14,"shark","shark eats people",0,"shark eats people",NA,"eat people"
"591",414,19,"doesnt carry Lyme disease","free_production",11432,15,"lion","lion doesn't carry Lyme disease",0,"lion doesn't carry Lyme disease",NA,"dont carry Lyme disease"
"592",415,19,"attacks swimmers","free_production",7080,16,"shark","shark attacks swimmers",1,"shark attacks swimmers",NA,"attack swimmers"
"593",415,19,"attacks swimmers","free_production",7080,16,"shark","shark attacks swimmers",1,"shark attacks swimmers",NA,"attack swimmers"
"594",416,19,"doesnt have beautiful feathers","free_production",22775,17,"cat","cat doesn't have beautiful feathers",0,"cat doesn't have beautiful feathers",NA,"dont have beautiful feathers"
"595",417,19,"lays eggs","free_production",5627,18,"hen","hen lays eggs",0,"hen lays eggs",NA,"lay eggs"
"596",417,19,"lays eggs","free_production",5627,18,"hen","hen lays eggs",0,"hen lays eggs",NA,"lay eggs"
"597",417,19,"lays eggs","free_production",5627,18,"hen","hen lays eggs",0,"hen lays eggs",NA,"lay eggs"
"598",418,19,"doesnt carry malaria","free_production",8906,19,"dolphin","dolphin doesn't carry malaria",0,"dolphin doesn't carry malaria",NA,"dont carry malaria"
"599",419,19,"carries Lyme disease","free_production",4507,20,"tick","tick carries Lyme disease",1,"tick carries Lyme disease","diagnostic","carry Lyme disease"
"600",420,19,"doesnt attack swimmers","free_production",7254,21,"cat","cat doesn't attack swimmers",0,"cat doesn't attack swimmers",NA,"dont attack swimmers"
"601",421,20,"is male","free_production",13437,1,"horse","horse is male",0,"horse is male",NA,"are male"
"602",422,20,"is full-grown","free_production",7849,2,"dog","dog is full-grown",0,"dog is full-grown",NA,"are full-grown"
"603",423,20,"lays eggs","free_production",7060,3,"spider","spider lays eggs",0,"spider lays eggs",NA,"lay eggs"
"604",423,20,"lays eggs","free_production",7060,3,"spider","spider lays eggs",0,"spider lays eggs",NA,"lay eggs"
"605",423,20,"lays eggs","free_production",7060,3,"spider","spider lays eggs",0,"spider lays eggs",NA,"lay eggs"
"606",424,20,"carries malaria","free_production",7170,4,"mosquito","mosquito carries malaria",1,"mosquito carries malaria","diagnostic","carry malaria"
"607",424,20,"carries malaria","free_production",7170,4,"mosquito","mosquito carries malaria",1,"mosquito carries malaria","diagnostic","carry malaria"
"608",425,20,"has beautiful feathers","free_production",6944,5,"peacock","peacock has beautiful feathers",1,"peacock has beautiful feathers",NA,"have beautiful feathers"
"609",426,20,"has wings","free_production",5382,6,"bird","bird has wings",0,"bird has wings",NA,"have wings"
"610",426,20,"has wings","free_production",5382,6,"bird","bird has wings",0,"bird has wings",NA,"have wings"
"611",427,20,"has a mane","free_production",5259,7,"lion","lion has a mane",1,"lion has a mane","diagnostic","have manes"
"612",427,20,"has a mane","free_production",5259,7,"lion","lion has a mane",1,"lion has a mane","diagnostic","have manes"
"613",428,20,"is female","free_production",6361,8,"cat","cat is female",0,"cat is female",NA,"are female"
"614",429,20,"doesnt eat people","free_production",5872,9,"lizard","lizard doesn't eat people",0,"lizard doesn't eat people",NA,"dont eat people"
"615",430,20,"doesnt have beautiful feathers","free_production",13166,10,"fly","fly doesn't have beautiful feathers",0,"fly doesn't have beautiful feathers",NA,"dont have beautiful feathers"
"616",431,20,"is juvenile","free_production",12694,11,"bee","bee is juvenile",0,"bee is juvenile",NA,"are juvenile"
"617",432,20,"is red","free_production",5430,12,"fox","fox is red",0,"fox is red",NA,"are red"
"618",433,20,"eats people","free_production",5433,13,"bear","bear eats people",0,"bear eats people",NA,"eat people"
"619",434,20,"carries Lyme disease","free_production",4825,14,"tick","tick carries Lyme disease",1,"tick carries Lyme disease","diagnostic","carry Lyme disease"
"620",435,20,"has spots","free_production",5039,15,"cheeta","cheeta has spots",0,"cheeta has spots",NA,"have spots"
"621",435,20,"has spots","free_production",5039,15,"cheeta","cheeta has spots",0,"cheeta has spots",NA,"have spots"
"622",436,20,"has a pouch","free_production",4760,16,"kangaroo","kangaroo has a pouch",1,"kangaroo has a pouch","diagnostic","have pouches"
"623",436,20,"has a pouch","free_production",4760,16,"kangaroo","kangaroo has a pouch",1,"kangaroo has a pouch","diagnostic","have pouches"
"624",437,20,"attacks swimmers","free_production",5609,17,"shark","shark attacks swimmers",1,"shark attacks swimmers",NA,"attack swimmers"
"625",437,20,"attacks swimmers","free_production",5609,17,"shark","shark attacks swimmers",1,"shark attacks swimmers",NA,"attack swimmers"
"626",438,20,"is white","free_production",10064,18,"polarbear","polarbear is white",0,"polarbear is white",NA,"are white"
"627",438,20,"is white","free_production",10064,18,"polarbear","polarbear is white",0,"polarbear is white",NA,"are white"
"628",439,20,"doesnt carry malaria","free_production",16768,19,"nat","nat doesn't carry malaria",0,"nat doesn't carry malaria",NA,"dont carry malaria"
"629",440,20,"doesnt carry Lyme disease","free_production",13680,20,"catapiller","catapiller doesn't carry Lyme disease",0,"catapiller doesn't carry Lyme disease",NA,"dont carry Lyme disease"
"630",441,20,"doesnt attack swimmers","free_production",8233,21,"dolphin","dolphin doesn't attack swimmers",0,"dolphin doesn't attack swimmers",NA,"dont attack swimmers"
"631",442,21,"is full-grown","free_production",5923,1,"human","human is full-grown",0,"human is full-grown",NA,"are full-grown"
"632",443,21,"eats people","free_production",9848,2,"wolf","wolf eats people",0,"wolf eats people",NA,"eat people"
"633",444,21,"doesnt have beautiful feathers","free_production",8582,3,"duck","duck doesn't have beautiful feathers",0,"duck doesn't have beautiful feathers",NA,"dont have beautiful feathers"
"634",445,21,"has wings","free_production",3576,4,"bee","bee has wings",0,"bee has wings",NA,"have wings"
"635",445,21,"has wings","free_production",3576,4,"bee","bee has wings",0,"bee has wings",NA,"have wings"
"636",446,21,"attacks swimmers","free_production",4340,5,"goose","goose attacks swimmers",0,"goose attacks swimmers",NA,"attack swimmers"
"637",446,21,"attacks swimmers","free_production",4340,5,"goose","goose attacks swimmers",0,"goose attacks swimmers",NA,"attack swimmers"
"638",447,21,"is red","free_production",4098,6,"ladybug","ladybug is red",0,"ladybug is red",NA,"are red"
"639",448,21,"carries malaria","free_production",5349,7,"mosquito","mosquito carries malaria",1,"mosquito carries malaria","diagnostic","carry malaria"
"640",448,21,"carries malaria","free_production",5349,7,"mosquito","mosquito carries malaria",1,"mosquito carries malaria","diagnostic","carry malaria"
"641",449,21,"is female","free_production",5386,8,"dog","dog is female",0,"dog is female",NA,"are female"
"642",450,21,"has beautiful feathers","free_production",3866,9,"peacock","peacock has beautiful feathers",1,"peacock has beautiful feathers",NA,"have beautiful feathers"
"643",451,21,"doesnt eat people","free_production",7315,10,"cat","cat doesn't eat people",0,"cat doesn't eat people",NA,"dont eat people"
"644",452,21,"is male","free_production",3367,11,"dog","dog is male",0,"dog is male",NA,"are male"
"645",453,21,"has a pouch","free_production",3293,12,"kangaroo","kangaroo has a pouch",1,"kangaroo has a pouch","diagnostic","have pouches"
"646",453,21,"has a pouch","free_production",3293,12,"kangaroo","kangaroo has a pouch",1,"kangaroo has a pouch","diagnostic","have pouches"
"647",454,21,"is white","free_production",7396,13,"sheep","sheep is white",0,"sheep is white",NA,"are white"
"648",454,21,"is white","free_production",7396,13,"sheep","sheep is white",0,"sheep is white",NA,"are white"
"649",455,21,"has a mane","free_production",2855,14,"lion","lion has a mane",1,"lion has a mane","diagnostic","have manes"
"650",455,21,"has a mane","free_production",2855,14,"lion","lion has a mane",1,"lion has a mane","diagnostic","have manes"
"651",456,21,"doesnt carry malaria","free_production",7291,15,"cow","cow doesn't carry malaria",0,"cow doesn't carry malaria",NA,"dont carry malaria"
"652",457,21,"lays eggs","free_production",3151,16,"chicken","chicken lays eggs",0,"chicken lays eggs",NA,"lay eggs"
"653",457,21,"lays eggs","free_production",3151,16,"chicken","chicken lays eggs",0,"chicken lays eggs",NA,"lay eggs"
"654",457,21,"lays eggs","free_production",3151,16,"chicken","chicken lays eggs",0,"chicken lays eggs",NA,"lay eggs"
"655",458,21,"is juvenile","free_production",13597,17,"duck","duck is juvenile",0,"duck is juvenile",NA,"are juvenile"
"656",459,21,"doesnt attack swimmers","free_production",4903,18,"dolphin","dolphin doesn't attack swimmers",0,"dolphin doesn't attack swimmers",NA,"dont attack swimmers"
"657",460,21,"has spots","free_production",2391,19,"cow","cow has spots",0,"cow has spots",NA,"have spots"
"658",460,21,"has spots","free_production",2391,19,"cow","cow has spots",0,"cow has spots",NA,"have spots"
"659",461,21,"doesnt carry Lyme disease","free_production",14048,20,"bull","bull doesn't carry Lyme disease",0,"bull doesn't carry Lyme disease",NA,"dont carry Lyme disease"
"660",462,21,"carries Lyme disease","free_production",3247,21,"deer","deer carries Lyme disease",0,"deer carries Lyme disease",NA,"carry Lyme disease"
"661",463,22,"is red","free_production",33773,1,"ant","ant is red",0,"ant is red",NA,"are red"
"662",464,22,"doesnt eat people","free_production",4557,2,"cow","cow doesn't eat people",0,"cow doesn't eat people",NA,"dont eat people"
"663",465,22,"has spots","free_production",13601,3,"dalmatian","dalmatian has spots",0,"dalmatian has spots",NA,"have spots"
"664",465,22,"has spots","free_production",13601,3,"dalmatian","dalmatian has spots",0,"dalmatian has spots",NA,"have spots"
"665",466,22,"has a mane","free_production",6867,4,"horse","horse has a mane",0,"horse has a mane",NA,"have manes"
"666",466,22,"has a mane","free_production",6867,4,"horse","horse has a mane",0,"horse has a mane",NA,"have manes"
"667",467,22,"is juvenile","free_production",10199,5,"puppy","puppy is juvenile",0,"puppy is juvenile",NA,"are juvenile"
"668",468,22,"carries Lyme disease","free_production",5273,6,"tick","tick carries Lyme disease",1,"tick carries Lyme disease","diagnostic","carry Lyme disease"
"669",469,22,"has a pouch","free_production",5491,7,"opossum","opossum has a pouch",0,"opossum has a pouch",NA,"have pouches"
"670",469,22,"has a pouch","free_production",5491,7,"opossum","opossum has a pouch",0,"opossum has a pouch",NA,"have pouches"
"671",470,22,"carries malaria","free_production",4338,8,"mosquito","mosquito carries malaria",1,"mosquito carries malaria","diagnostic","carry malaria"
"672",470,22,"carries malaria","free_production",4338,8,"mosquito","mosquito carries malaria",1,"mosquito carries malaria","diagnostic","carry malaria"
"673",471,22,"is male","free_production",3947,9,"bull","bull is male",0,"bull is male",NA,"are male"
"674",472,22,"is female","free_production",14361,10,"spider","spider is female",0,"spider is female",NA,"are female"
"675",473,22,"has wings","free_production",3739,11,"bird","bird has wings",0,"bird has wings",NA,"have wings"
"676",473,22,"has wings","free_production",3739,11,"bird","bird has wings",0,"bird has wings",NA,"have wings"
"677",474,22,"is white","free_production",7459,12,"dove","dove is white",0,"dove is white",NA,"are white"
"678",474,22,"is white","free_production",7459,12,"dove","dove is white",0,"dove is white",NA,"are white"
"679",475,22,"attacks swimmers","free_production",4657,13,"shark","shark attacks swimmers",1,"shark attacks swimmers",NA,"attack swimmers"
"680",475,22,"attacks swimmers","free_production",4657,13,"shark","shark attacks swimmers",1,"shark attacks swimmers",NA,"attack swimmers"
"681",476,22,"is full-grown","free_production",7516,14,"dog","dog is full-grown",0,"dog is full-grown",NA,"are full-grown"
"682",477,22,"doesnt have beautiful feathers","free_production",5222,15,"beetle","beetle doesn't have beautiful feathers",0,"beetle doesn't have beautiful feathers",NA,"dont have beautiful feathers"
"683",478,22,"doesnt attack swimmers","free_production",7673,16,"manatee","manatee doesn't attack swimmers",0,"manatee doesn't attack swimmers",NA,"dont attack swimmers"
"684",479,22,"lays eggs","free_production",4060,17,"turtle","turtle lays eggs",0,"turtle lays eggs",NA,"lay eggs"
"685",479,22,"lays eggs","free_production",4060,17,"turtle","turtle lays eggs",0,"turtle lays eggs",NA,"lay eggs"
"686",479,22,"lays eggs","free_production",4060,17,"turtle","turtle lays eggs",0,"turtle lays eggs",NA,"lay eggs"
"687",480,22,"doesnt carry Lyme disease","free_production",18638,18,"koala","koala doesn't carry Lyme disease",0,"koala doesn't carry Lyme disease",NA,"dont carry Lyme disease"
"688",481,22,"eats people","free_production",5607,19,"tiger","tiger eats people",1,"tiger eats people",NA,"eat people"
"689",482,22,"doesnt carry malaria","free_production",6617,20,"alligator","alligator doesn't carry malaria",0,"alligator doesn't carry malaria",NA,"dont carry malaria"
"690",483,22,"has beautiful feathers","free_production",5101,21,"peacock","peacock has beautiful feathers",1,"peacock has beautiful feathers",NA,"have beautiful feathers"
"691",484,23,"has wings","free_production",6199,1,"bird","bird has wings",0,"bird has wings",NA,"have wings"
"692",484,23,"has wings","free_production",6199,1,"bird","bird has wings",0,"bird has wings",NA,"have wings"
"693",485,23,"has a pouch","free_production",7847,2,"kangaroo","kangaroo has a pouch",1,"kangaroo has a pouch","diagnostic","have pouches"
"694",485,23,"has a pouch","free_production",7847,2,"kangaroo","kangaroo has a pouch",1,"kangaroo has a pouch","diagnostic","have pouches"
"695",486,23,"has a mane","free_production",4997,3,"lion","lion has a mane",1,"lion has a mane","diagnostic","have manes"
"696",486,23,"has a mane","free_production",4997,3,"lion","lion has a mane",1,"lion has a mane","diagnostic","have manes"
"697",487,23,"doesnt carry Lyme disease","free_production",19824,4,"cockroache","cockroache doesn't carry Lyme disease",0,"cockroache doesn't carry Lyme disease",NA,"dont carry Lyme disease"
"698",488,23,"is juvenile","free_production",7824,5,"dog","dog is juvenile",0,"dog is juvenile",NA,"are juvenile"
"699",489,23,"is full-grown","free_production",8984,6,"gorilla","gorilla is full-grown",0,"gorilla is full-grown",NA,"are full-grown"
"700",490,23,"is male","free_production",11272,7,"shark","shark is male",0,"shark is male",NA,"are male"
"701",491,23,"attacks swimmers","free_production",7352,8,"shark","shark attacks swimmers",1,"shark attacks swimmers",NA,"attack swimmers"
"702",491,23,"attacks swimmers","free_production",7352,8,"shark","shark attacks swimmers",1,"shark attacks swimmers",NA,"attack swimmers"
"703",492,23,"is red","free_production",6777,9,"redpanda","redpanda is red",0,"redpanda is red",NA,"are red"
"704",493,23,"doesnt have beautiful feathers","free_production",6432,10,"crow","crow doesn't have beautiful feathers",0,"crow doesn't have beautiful feathers",NA,"dont have beautiful feathers"
"705",494,23,"has beautiful feathers","free_production",6142,11,"peacock","peacock has beautiful feathers",1,"peacock has beautiful feathers",NA,"have beautiful feathers"
"706",495,23,"carries malaria","free_production",8848,12,"mosquito","mosquito carries malaria",1,"mosquito carries malaria","diagnostic","carry malaria"
"707",495,23,"carries malaria","free_production",8848,12,"mosquito","mosquito carries malaria",1,"mosquito carries malaria","diagnostic","carry malaria"
"708",496,23,"is white","free_production",6008,13,"swan","swan is white",1,"swan is white",NA,"are white"
"709",496,23,"is white","free_production",6008,13,"swan","swan is white",1,"swan is white",NA,"are white"
"710",497,23,"doesnt carry malaria","free_production",9248,14,"polarbear","polarbear doesn't carry malaria",0,"polarbear doesn't carry malaria",NA,"dont carry malaria"
"711",498,23,"is female","free_production",10752,15,"cat","cat is female",0,"cat is female",NA,"are female"
"712",499,23,"doesnt attack swimmers","free_production",10280,16,"dolphin","dolphin doesn't attack swimmers",0,"dolphin doesn't attack swimmers",NA,"dont attack swimmers"
"713",500,23,"has spots","free_production",6479,17,"cow","cow has spots",0,"cow has spots",NA,"have spots"
"714",500,23,"has spots","free_production",6479,17,"cow","cow has spots",0,"cow has spots",NA,"have spots"
"715",501,23,"eats people","free_production",8848,18,"maggot","maggot eats people",0,"maggot eats people",NA,"eat people"
"716",502,23,"carries Lyme disease","free_production",3936,19,"tick","tick carries Lyme disease",1,"tick carries Lyme disease","diagnostic","carry Lyme disease"
"717",503,23,"lays eggs","free_production",5711,20,"chicken","chicken lays eggs",0,"chicken lays eggs",NA,"lay eggs"
"718",503,23,"lays eggs","free_production",5711,20,"chicken","chicken lays eggs",0,"chicken lays eggs",NA,"lay eggs"
"719",503,23,"lays eggs","free_production",5711,20,"chicken","chicken lays eggs",0,"chicken lays eggs",NA,"lay eggs"
"720",504,23,"doesnt eat people","free_production",11728,21,"goat","goat doesn't eat people",0,"goat doesn't eat people",NA,"dont eat people"
"721",505,24,"eats people","free_production",12368,1,"lion","lion eats people",0,"lion eats people",NA,"eat people"
"722",506,24,"doesnt carry Lyme disease","free_production",7400,2,"dog","dog doesn't carry Lyme disease",0,"dog doesn't carry Lyme disease",NA,"dont carry Lyme disease"
"723",507,24,"carries Lyme disease","free_production",5224,3,"deer","deer carries Lyme disease",0,"deer carries Lyme disease",NA,"carry Lyme disease"
"724",508,24,"is male","free_production",12271,4,"bird","bird is male",0,"bird is male",NA,"are male"
"725",509,24,"is red","free_production",4417,5,"ball","ball is red",0,"ball is red",NA,"are red"
"726",510,24,"lays eggs","free_production",4727,6,"hen","hen lays eggs",0,"hen lays eggs",NA,"lay eggs"
"727",510,24,"lays eggs","free_production",4727,6,"hen","hen lays eggs",0,"hen lays eggs",NA,"lay eggs"
"728",510,24,"lays eggs","free_production",4727,6,"hen","hen lays eggs",0,"hen lays eggs",NA,"lay eggs"
"729",511,24,"doesnt eat people","free_production",5944,7,"dog","dog doesn't eat people",0,"dog doesn't eat people",NA,"dont eat people"
"730",512,24,"attacks swimmers","free_production",5265,8,"shark","shark attacks swimmers",1,"shark attacks swimmers",NA,"attack swimmers"
"731",512,24,"attacks swimmers","free_production",5265,8,"shark","shark attacks swimmers",1,"shark attacks swimmers",NA,"attack swimmers"
"732",513,24,"carries malaria","free_production",6391,9,"mosquito","mosquito carries malaria",1,"mosquito carries malaria","diagnostic","carry malaria"
"733",513,24,"carries malaria","free_production",6391,9,"mosquito","mosquito carries malaria",1,"mosquito carries malaria","diagnostic","carry malaria"
"734",514,24,"is full-grown","free_production",8568,10,"elephant","elephant is full-grown",0,"elephant is full-grown",NA,"are full-grown"
"735",515,24,"has wings","free_production",4695,11,"bird","bird has wings",0,"bird has wings",NA,"have wings"
"736",515,24,"has wings","free_production",4695,11,"bird","bird has wings",0,"bird has wings",NA,"have wings"
"737",516,24,"is female","free_production",7263,12,"butterfly","butterfly is female",0,"butterfly is female",NA,"are female"
"738",517,24,"doesnt carry malaria","free_production",8064,13,"tick","tick doesn't carry malaria",0,"tick doesn't carry malaria",NA,"dont carry malaria"
"739",518,24,"is juvenile","free_production",10696,14,"rabbit","rabbit is juvenile",0,"rabbit is juvenile",NA,"are juvenile"
"740",519,24,"doesnt attack swimmers","free_production",5097,15,"whale","whale doesn't attack swimmers",0,"whale doesn't attack swimmers",NA,"dont attack swimmers"
"741",520,24,"has a mane","free_production",4903,16,"horse","horse has a mane",0,"horse has a mane",NA,"have manes"
"742",520,24,"has a mane","free_production",4903,16,"horse","horse has a mane",0,"horse has a mane",NA,"have manes"
"743",521,24,"has beautiful feathers","free_production",5177,17,"turkey","turkey has beautiful feathers",0,"turkey has beautiful feathers",NA,"have beautiful feathers"
"744",522,24,"doesnt have beautiful feathers","free_production",5167,18,"hen","hen doesn't have beautiful feathers",0,"hen doesn't have beautiful feathers",NA,"dont have beautiful feathers"
"745",523,24,"has a pouch","free_production",7920,19,"kangaroo","kangaroo has a pouch",1,"kangaroo has a pouch","diagnostic","have pouches"
"746",523,24,"has a pouch","free_production",7920,19,"kangaroo","kangaroo has a pouch",1,"kangaroo has a pouch","diagnostic","have pouches"
"747",524,24,"is white","free_production",8184,20,"duck","duck is white",0,"duck is white",NA,"are white"
"748",524,24,"is white","free_production",8184,20,"duck","duck is white",0,"duck is white",NA,"are white"
"749",525,24,"has spots","free_production",25272,21,"leopard","leopard has spots",1,"leopard has spots",NA,"have spots"
"750",525,24,"has spots","free_production",25272,21,"leopard","leopard has spots",1,"leopard has spots",NA,"have spots"
"751",526,25,"is full-grown","free_production",15032,1,"butterfly","butterfly is full-grown",0,"butterfly is full-grown",NA,"are full-grown"
"752",527,25,"has a pouch","free_production",4694,2,"kangaroo","kangaroo has a pouch",1,"kangaroo has a pouch","diagnostic","have pouches"
"753",527,25,"has a pouch","free_production",4694,2,"kangaroo","kangaroo has a pouch",1,"kangaroo has a pouch","diagnostic","have pouches"
"754",528,25,"is female","free_production",4345,3,"cow","cow is female",0,"cow is female",NA,"are female"
"755",529,25,"carries Lyme disease","free_production",4564,4,"mosquito","mosquito carries Lyme disease",0,"mosquito carries Lyme disease",NA,"carry Lyme disease"
"756",530,25,"has a mane","free_production",3040,5,"lion","lion has a mane",1,"lion has a mane","diagnostic","have manes"
"757",530,25,"has a mane","free_production",3040,5,"lion","lion has a mane",1,"lion has a mane","diagnostic","have manes"
"758",531,25,"is male","free_production",7294,6,"bull","bull is male",0,"bull is male",NA,"are male"
"759",532,25,"doesnt have beautiful feathers","free_production",24500,7,"fish","fish doesn't have beautiful feathers",0,"fish doesn't have beautiful feathers",NA,"dont have beautiful feathers"
"760",533,25,"eats people","free_production",7918,8,"shark","shark eats people",0,"shark eats people",NA,"eat people"
