"","workerid","property","trial_type","rt","trial_num","response","sentence","targetMention"
"1",0,"carries malaria","free_production",7219,1,"mosquito","mosquito carries malaria",1
"2",0,"eats people","free_production",5291,2,"shark","shark eats people",0
"3",0,"is juvenile","free_production",5026,3,"tiger","tiger is juvenile",0
"4",0,"has a mane","free_production",4163,4,"horse","horse has a mane",0
"5",0,"is full-grown","free_production",5666,5,"bear","bear is full-grown",0
"6",0,"doesn't carry Lyme disease","free_production",6871,6,"prayingmanti","prayingmanti doesn't carry Lyme disease",0
"7",0,"is white","free_production",3773,7,"dove","dove is white",0
"8",0,"doesn't eat people","free_production",3326,8,"cat","cat doesn't eat people",0
"9",0,"is male","free_production",4376,9,"dog","dog is male",0
"10",0,"doesn't attack swimmers","free_production",8200,10,"pelican","pelican doesn't attack swimmers",0
"11",0,"is red","free_production",5688,11,"cardinal","cardinal is red",1
"12",0,"lays eggs","free_production",5720,12,"turtle","turtle lays eggs",0
"13",0,"carries Lyme disease","free_production",2807,13,"tick","tick carries Lyme disease",1
"14",0,"has wings","free_production",4611,14,"bat","bat has wings",0
"15",0,"has spots","free_production",10615,15,"ladybug","ladybug has spots",0
"16",0,"is female","free_production",15334,16,"mare","mare is female",0
"17",0,"doesn't carry malaria","free_production",3034,17,"fly","fly doesn't carry malaria",0
"18",0,"attacks swimmers","free_production",3997,18,"eel","eel attacks swimmers",0
"19",0,"doesn't have beautiful feathers","free_production",3665,19,"pig","pig doesn't have beautiful feathers",0
"20",0,"has a pouch","free_production",3734,20,"kangaroo","kangaroo has a pouch",1
"21",0,"has beautiful feathers","free_production",4477,21,"peacock","peacock has beautiful feathers",1
"22",1,"doesn't eat people","free_production",14828,1,"ant","ant doesn't eat people",0
"23",1,"is female","free_production",21819,2,"cat","cat is female",0
"24",1,"has a mane","free_production",23348,3,"lion","lion has a mane",1
"25",1,"carries Lyme disease","free_production",8546,4,"mosquito","mosquito carries Lyme disease",0
"26",1,"is red","free_production",10507,5,"redant","redant is red",0
"27",1,"doesn't carry Lyme disease","free_production",4983,6,"fly","fly doesn't carry Lyme disease",0
"28",1,"has spots","free_production",14554,7,"beetle","beetle has spots",0
"29",1,"has a pouch","free_production",4468,8,"kangaroo","kangaroo has a pouch",1
"30",1,"doesn't have beautiful feathers","free_production",7836,9,"lizard","lizard doesn't have beautiful feathers",0
"31",1,"has beautiful feathers","free_production",3468,10,"bird","bird has beautiful feathers",0
"32",1,"doesn't attack swimmers","free_production",43645,11,"dog","dog doesn't attack swimmers",0
"33",1,"doesn't carry malaria","free_production",7258,12,"dog","dog doesn't carry malaria",0
"34",1,"eats people","free_production",8177,13,"crocodile","crocodile eats people",0
"35",1,"is full-grown","free_production",5056,14,"dog","dog is full-grown",0
"36",1,"lays eggs","free_production",4836,15,"chicken","chicken lays eggs",0
"37",1,"has wings","free_production",2990,16,"bird","bird has wings",0
"38",1,"attacks swimmers","free_production",3656,17,"shark","shark attacks swimmers",1
"39",1,"carries malaria","free_production",8905,18,"mosquito","mosquito carries malaria",1
"40",1,"is male","free_production",3774,19,"dog","dog is male",0
"41",1,"is juvenile","free_production",9709,20,"puppy","puppy is juvenile",0
"42",1,"is white","free_production",4156,21,"cow","cow is white",0
"43",2,"has a pouch","free_production",5495,1,"kangaroo","kangaroo has a pouch",1
"44",2,"doesn't attack swimmers","free_production",12388,2,"clownfish","clownfish doesn't attack swimmers",0
"45",2,"attacks swimmers","free_production",4632,3,"shark","shark attacks swimmers",1
"46",2,"eats people","free_production",12825,4,"lion","lion eats people",0
"47",2,"doesn't have beautiful feathers","free_production",7279,5,"pigeon","pigeon doesn't have beautiful feathers",0
"48",2,"has beautiful feathers","free_production",6711,6,"peacock","peacock has beautiful feathers",1
"49",2,"has a mane","free_production",5857,7,"lion","lion has a mane",1
"50",2,"carries Lyme disease","free_production",2908,8,"tick","tick carries Lyme disease",1
"51",2,"carries malaria","free_production",7983,9,"mosquito","mosquito carries malaria",1
"52",2,"is full-grown","free_production",7821,10,"elephant","elephant is full-grown",0
"53",2,"doesn't eat people","free_production",7755,11,"cat","cat doesn't eat people",0
"54",2,"is female","free_production",22538,12,"chicken","chicken is female",0
"55",2,"has wings","free_production",7149,13,"hummingbird","hummingbird has wings",0
"56",2,"doesn't carry malaria","free_production",4280,14,"dog","dog doesn't carry malaria",0
"57",2,"doesn't carry Lyme disease","free_production",7223,15,"cat","cat doesn't carry Lyme disease",0
"58",2,"is red","free_production",24154,16,"bird","bird is red",0
"59",2,"has spots","free_production",10033,17,"leopard","leopard has spots",1
"60",2,"is male","free_production",4241,18,"rooster","rooster is male",0
"61",2,"lays eggs","free_production",5985,19,"chicken","chicken lays eggs",0
"62",2,"is white","free_production",21088,20,"cat","cat is white",0
"63",2,"is juvenile","free_production",6263,21,"kitten","kitten is juvenile",0
"64",3,"carries Lyme disease","free_production",13743,1,"tick","tick carries Lyme disease",1
"65",3,"is juvenile","free_production",6943,2,"kitten","kitten is juvenile",0
"66",3,"is female","free_production",7496,3,"cat","cat is female",0
"67",3,"has a mane","free_production",4296,4,"lion","lion has a mane",1
"68",3,"carries malaria","free_production",9104,5,"mosquito","mosquito carries malaria",1
"69",3,"doesn't attack swimmers","free_production",10216,6,"trout","trout doesn't attack swimmers",0
"70",3,"is red","free_production",7304,7,"ladybug","ladybug is red",0
"71",3,"eats people","free_production",9680,8,"shark","shark eats people",0
"72",3,"has beautiful feathers","free_production",6888,9,"peacock","peacock has beautiful feathers",1
"73",3,"has wings","free_production",6648,10,"eagle","eagle has wings",0
"74",3,"attacks swimmers","free_production",18840,11,"shark","shark attacks swimmers",1
"75",3,"doesn't have beautiful feathers","free_production",10952,12,"pidgeon","pidgeon doesn't have beautiful feathers",0
"76",3,"doesn't carry malaria","free_production",7911,13,"ant","ant doesn't carry malaria",0
"77",3,"doesn't carry Lyme disease","free_production",14047,14,"cheetah","cheetah doesn't carry Lyme disease",0
"78",3,"doesn't eat people","free_production",4848,15,"dog","dog doesn't eat people",0
"79",3,"is full-grown","free_production",8288,16,"elephant","elephant is full-grown",0
"80",3,"has a pouch","free_production",6104,17,"kangaroo","kangaroo has a pouch",1
"81",3,"lays eggs","free_production",3824,18,"chicken","chicken lays eggs",0
"82",3,"is male","free_production",5448,19,"wolf","wolf is male",0
"83",3,"is white","free_production",7248,20,"rabbit","rabbit is white",0
"84",3,"has spots","free_production",10153,21,"duck","duck has spots",0
"85",4,"doesn't have beautiful feathers","free_production",5243,1,"cat","cat doesn't have beautiful feathers",0
"86",4,"carries malaria","free_production",4347,2,"mosquito","mosquito carries malaria",1
"87",4,"is white","free_production",4683,3,"whale","whale is white",0
"88",4,"has spots","free_production",13619,4,"giraffe","giraffe has spots",0
"89",4,"attacks swimmers","free_production",3833,5,"shark","shark attacks swimmers",1
"90",4,"lays eggs","free_production",4170,6,"fly","fly lays eggs",0
"91",4,"has wings","free_production",7016,7,"fly","fly has wings",0
"92",4,"is juvenile","free_production",14461,8,"tigercub","tigercub is juvenile",0
"93",4,"doesn't carry malaria","free_production",3940,9,"cat","cat doesn't carry malaria",0
"94",4,"doesn't attack swimmers","free_production",3993,10,"dog","dog doesn't attack swimmers",0
"95",4,"eats people","free_production",5436,11,"shark","shark eats people",0
"96",4,"doesn't eat people","free_production",3473,12,"cat","cat doesn't eat people",0
"97",4,"carries Lyme disease","free_production",3692,13,"tick","tick carries Lyme disease",1
"98",4,"has a pouch","free_production",4624,14,"kangaroo","kangaroo has a pouch",1
"99",4,"is full-grown","free_production",3833,15,"kangaro","kangaro is full-grown",0
"100",4,"is red","free_production",10712,16,"ladybug","ladybug is red",0
"101",4,"doesn't carry Lyme disease","free_production",6697,17,"ladybug","ladybug doesn't carry Lyme disease",0
"102",4,"has a mane","free_production",4510,18,"lion","lion has a mane",1
"103",4,"is female","free_production",17224,19,"kangaroo","kangaroo is female",0
"104",4,"is male","free_production",4749,20,"kangaroo","kangaroo is male",0
"105",4,"has beautiful feathers","free_production",5060,21,"peacock","peacock has beautiful feathers",1
"106",5,"carries malaria","free_production",75553,1,"mosquito","mosquito carries malaria",1
"107",5,"is juvenile","free_production",7911,2,"monkey","monkey is juvenile",0
"108",5,"eats people","free_production",7406,3,"tiger","tiger eats people",1
"109",5,"has a pouch","free_production",10688,4,"kangaroo","kangaroo has a pouch",1
"110",5,"doesn't have beautiful feathers","free_production",8532,5,"kiwi","kiwi doesn't have beautiful feathers",0
"111",5,"has spots","free_production",9342,6,"leopard","leopard has spots",1
"112",5,"carries Lyme disease","free_production",7894,7,"tick","tick carries Lyme disease",1
"113",5,"lays eggs","free_production",3492,8,"hen","hen lays eggs",0
"114",5,"has wings","free_production",6166,9,"bird","bird has wings",0
"115",5,"doesn't eat people","free_production",19997,10,"frog","frog doesn't eat people",0
"116",5,"is female","free_production",5804,11,"frog","frog is female",0
"117",5,"doesn't carry malaria","free_production",6323,12,"frog","frog doesn't carry malaria",0
"118",5,"doesn't carry Lyme disease","free_production",5610,13,"frog","frog doesn't carry Lyme disease",0
"119",5,"is red","free_production",5893,14,"cardinal","cardinal is red",1
"120",5,"doesn't attack swimmers","free_production",9544,15,"tuna","tuna doesn't attack swimmers",0
"121",5,"has beautiful feathers","free_production",45046,16,"peacock","peacock has beautiful feathers",1
"122",5,"is male","free_production",43818,17,"frog","frog is male",0
"123",5,"attacks swimmers","free_production",76974,18,"shark","shark attacks swimmers",1
"124",5,"has a mane","free_production",5124,19,"lion","lion has a mane",1
"125",5,"is white","free_production",9894,20,"dove","dove is white",0
"126",5,"is full-grown","free_production",5118,21,"cow","cow is full-grown",0
"127",6,"carries Lyme disease","free_production",5765,1,"tick","tick carries Lyme disease",1
"128",6,"has a mane","free_production",2995,2,"horse","horse has a mane",0
"129",6,"is male","free_production",8441,3,"dog","dog is male",0
"130",6,"doesn't carry Lyme disease","free_production",9476,4,"cat","cat doesn't carry Lyme disease",0
"131",6,"eats people","free_production",8828,5,"lion","lion eats people",0
"132",6,"is full-grown","free_production",6015,6,"poodle","poodle is full-grown",0
"133",6,"has beautiful feathers","free_production",3499,7,"peacock","peacock has beautiful feathers",1
"134",6,"doesn't eat people","free_production",5116,8,"pig","pig doesn't eat people",0
"135",6,"has a pouch","free_production",3777,9,"kangaroo","kangaroo has a pouch",1
"136",6,"doesn't carry malaria","free_production",4486,10,"dog","dog doesn't carry malaria",0
"137",6,"doesn't attack swimmers","free_production",6589,11,"dolphin","dolphin doesn't attack swimmers",0
"138",6,"has wings","free_production",5347,12,"eagle","eagle has wings",0
"139",6,"is juvenile","free_production",4942,13,"kitten","kitten is juvenile",0
"140",6,"attacks swimmers","free_production",3780,14,"shark","shark attacks swimmers",1
"141",6,"lays eggs","free_production",3162,15,"chicken","chicken lays eggs",0
"142",6,"carries malaria","free_production",10070,16,"mosquito","mosquito carries malaria",1
"143",6,"is red","free_production",103387,17,"ladybug","ladybug is red",0
"144",6,"is white","free_production",4737,18,"cat","cat is white",0
"145",6,"is female","free_production",8255,19,"sparrow","sparrow is female",0
"146",6,"has spots","free_production",5113,20,"cheetah","cheetah has spots",0
"147",6,"doesn't have beautiful feathers","free_production",6311,21,"gazelle","gazelle doesn't have beautiful feathers",0
"148",7,"has a mane","free_production",5643,1,"horse","horse has a mane",0
"149",7,"lays eggs","free_production",4513,2,"chicken","chicken lays eggs",0
"150",7,"doesn't carry malaria","free_production",9005,3,"cat","cat doesn't carry malaria",0
"151",7,"has beautiful feathers","free_production",4721,4,"peacock","peacock has beautiful feathers",1
"152",7,"is white","free_production",5752,5,"cat","cat is white",0
"153",7,"doesn't attack swimmers","free_production",8463,6,"tuna","tuna doesn't attack swimmers",0
"154",7,"has spots","free_production",5545,7,"dalmation","dalmation has spots",0
"155",7,"doesn't eat people","free_production",9910,8,"giraffe","giraffe doesn't eat people",0
"156",7,"is full-grown","free_production",5845,9,"elephant","elephant is full-grown",0
"157",7,"carries malaria","free_production",5850,10,"mosquito","mosquito carries malaria",1
"158",7,"is male","free_production",4970,11,"dog","dog is male",0
"159",7,"eats people","free_production",4691,12,"lion","lion eats people",0
"160",7,"is female","free_production",3376,13,"bear","bear is female",0
"161",7,"has a pouch","free_production",4833,14,"kangaroo","kangaroo has a pouch",1
"162",7,"is juvenile","free_production",4755,15,"joey","joey is juvenile",0
"163",7,"carries Lyme disease","free_production",4468,16,"tick","tick carries Lyme disease",1
"164",7,"doesn't carry Lyme disease","free_production",5846,17,"mosquito","mosquito doesn't carry Lyme disease",0
"165",7,"is red","free_production",4854,18,"ladybug","ladybug is red",0
"166",7,"attacks swimmers","free_production",3849,19,"shark","shark attacks swimmers",1
"167",7,"has wings","free_production",6596,20,"beatle","beatle has wings",0
"168",7,"doesn't have beautiful feathers","free_production",8618,21,"finch","finch doesn't have beautiful feathers",0
"169",8,"carries Lyme disease","free_production",5924,1,"tick","tick carries Lyme disease",1
"170",8,"doesn't have beautiful feathers","free_production",8760,2,"ostrich","ostrich doesn't have beautiful feathers",0
"171",8,"carries malaria","free_production",7280,3,"mosquito","mosquito carries malaria",1
"172",8,"attacks swimmers","free_production",6250,4,"shark","shark attacks swimmers",1
"173",8,"has wings","free_production",6944,5,"butterfly","butterfly has wings",0
"174",8,"has beautiful feathers","free_production",5354,6,"peacock","peacock has beautiful feathers",1
"175",8,"doesn't eat people","free_production",7422,7,"giraffe","giraffe doesn't eat people",0
"176",8,"doesn't carry Lyme disease","free_production",7245,8,"fly","fly doesn't carry Lyme disease",0
"177",8,"has a pouch","free_production",3882,9,"kangaroo","kangaroo has a pouch",1
"178",8,"doesn't carry malaria","free_production",5963,10,"moth","moth doesn't carry malaria",0
"179",8,"lays eggs","free_production",2881,11,"hen","hen lays eggs",0
"180",8,"is full-grown","free_production",5599,12,"elephant","elephant is full-grown",0
"181",8,"is white","free_production",7781,13,"polarbear","polarbear is white",0
"182",8,"is juvenile","free_production",9343,14,"rabbit","rabbit is juvenile",0
"183",8,"is red","free_production",2766,15,"fox","fox is red",0
"184",8,"has spots","free_production",5653,16,"leopard","leopard has spots",1
"185",8,"eats people","free_production",10081,17,"lion","lion eats people",0
"186",8,"doesn't attack swimmers","free_production",4840,18,"dolphin","dolphin doesn't attack swimmers",0
"187",8,"is male","free_production",8194,19,"rooster","rooster is male",0
"188",8,"is female","free_production",2884,20,"hen","hen is female",0
"189",8,"has a mane","free_production",7554,21,"horse","horse has a mane",0
"190",9,"is full-grown","free_production",5466,1,"dog","dog is full-grown",0
"191",9,"has spots","free_production",6468,2,"giraffe","giraffe has spots",0
"192",9,"attacks swimmers","free_production",2508,3,"shark","shark attacks swimmers",1
"193",9,"is red","free_production",8483,4,"babboon","babboon is red",0
"194",9,"has a pouch","free_production",2822,5,"kangaroo","kangaroo has a pouch",1
"195",9,"lays eggs","free_production",2812,6,"spider","spider lays eggs",0
"196",9,"doesn't have beautiful feathers","free_production",7109,7,"sparrow","sparrow doesn't have beautiful feathers",0
"197",9,"eats people","free_production",5193,8,"alligator","alligator eats people",0
"198",9,"is juvenile","free_production",7529,9,"hyena","hyena is juvenile",0
"199",9,"is white","free_production",5487,10,"lemur","lemur is white",0
"200",9,"doesn't eat people","free_production",7834,11,"guppie","guppie doesn't eat people",0
"201",9,"has beautiful feathers","free_production",2978,12,"peacock","peacock has beautiful feathers",1
"202",9,"carries Lyme disease","free_production",4214,13,"tick","tick carries Lyme disease",1
"203",9,"is female","free_production",3723,14,"cat","cat is female",0
"204",9,"doesn't carry Lyme disease","free_production",2842,15,"dog","dog doesn't carry Lyme disease",0
"205",9,"doesn't carry malaria","free_production",5949,16,"ostrich","ostrich doesn't carry malaria",0
"206",9,"carries malaria","free_production",3758,17,"mosquito","mosquito carries malaria",1
"207",9,"doesn't attack swimmers","free_production",5907,18,"starfish","starfish doesn't attack swimmers",0
"208",9,"has a mane","free_production",3034,19,"lion","lion has a mane",1
"209",9,"is male","free_production",5523,20,"seahorse","seahorse is male",0
"210",9,"has wings","free_production",7169,21,"bird","bird has wings",0
"211",10,"doesn't attack swimmers","free_production",10226,1,"fish","fish doesn't attack swimmers",0
"212",10,"is juvenile","free_production",6893,2,"maggot","maggot is juvenile",0
"213",10,"doesn't eat people","free_production",5023,3,"cow","cow doesn't eat people",0
"214",10,"is white","free_production",8240,4,"ermine","ermine is white",0
"215",10,"doesn't have beautiful feathers","free_production",6570,5,"sparrow","sparrow doesn't have beautiful feathers",0
"216",10,"eats people","free_production",5298,6,"alligator","alligator eats people",0
"217",10,"has a pouch","free_production",19910,7,"echidna","echidna has a pouch",0
"218",10,"doesn't carry malaria","free_production",6302,8,"cat","cat doesn't carry malaria",0
"219",10,"attacks swimmers","free_production",6501,9,"jellyfish","jellyfish attacks swimmers",0
"220",10,"has beautiful feathers","free_production",7533,10,"lovebird","lovebird has beautiful feathers",0
"221",10,"has wings","free_production",11285,11,"starling","starling has wings",0
"222",10,"carries Lyme disease","free_production",3118,12,"deer","deer carries Lyme disease",0
"223",10,"doesn't carry Lyme disease","free_production",4168,13,"bear","bear doesn't carry Lyme disease",0
"224",10,"is male","free_production",3768,14,"bull","bull is male",0
"225",10,"is red","free_production",3905,15,"fox","fox is red",0
"226",10,"carries malaria","free_production",3858,16,"mosquito","mosquito carries malaria",1
"227",10,"is full-grown","free_production",6028,17,"fly","fly is full-grown",0
"228",10,"lays eggs","free_production",4495,18,"echidna","echidna lays eggs",0
"229",10,"is female","free_production",9568,19,"cow","cow is female",0
"230",10,"has a mane","free_production",3710,20,"zebra","zebra has a mane",0
"231",10,"has spots","free_production",3621,21,"leopard","leopard has spots",1
"232",11,"carries malaria","free_production",6567,1,"mosquito","mosquito carries malaria",1
"233",11,"is juvenile","free_production",6371,2,"bat","bat is juvenile",0
"234",11,"is white","free_production",5836,3,"cat","cat is white",0
"235",11,"attacks swimmers","free_production",5060,4,"shark","shark attacks swimmers",1
"236",11,"doesn't attack swimmers","free_production",5273,5,"bas","bas doesn't attack swimmers",0
"237",11,"doesn't eat people","free_production",10889,6,"bird","bird doesn't eat people",0
"238",11,"doesn't carry Lyme disease","free_production",5027,7,"dog","dog doesn't carry Lyme disease",0
"239",11,"doesn't carry malaria","free_production",4871,8,"bird","bird doesn't carry malaria",0
"240",11,"is full-grown","free_production",3106,9,"cow","cow is full-grown",0
"241",11,"has spots","free_production",7520,10,"leopard","leopard has spots",1
"242",11,"doesn't have beautiful feathers","free_production",4704,11,"zebra","zebra doesn't have beautiful feathers",0
"243",11,"lays eggs","free_production",4266,12,"chicken","chicken lays eggs",0
"244",11,"has beautiful feathers","free_production",5343,13,"peacock","peacock has beautiful feathers",1
"245",11,"has a mane","free_production",4506,14,"horse","horse has a mane",0
"246",11,"has wings","free_production",5987,15,"mosquito","mosquito has wings",0
"247",11,"eats people","free_production",4549,16,"shark","shark eats people",0
"248",11,"has a pouch","free_production",5189,17,"kangaroo","kangaroo has a pouch",1
"249",11,"is red","free_production",12655,18,"bird","bird is red",0
"250",11,"is male","free_production",3964,19,"mule","mule is male",0
"251",11,"carries Lyme disease","free_production",3348,20,"tick","tick carries Lyme disease",1
"252",11,"is female","free_production",3465,21,"cow","cow is female",0
"253",12,"carries malaria","free_production",6535,1,"mosquito","mosquito carries malaria",1
"254",12,"has a pouch","free_production",5495,2,"kangaroo","kangaroo has a pouch",1
"255",12,"has wings","free_production",3324,3,"bat","bat has wings",0
"256",12,"attacks swimmers","free_production",6059,4,"shark","shark attacks swimmers",1
"257",12,"carries Lyme disease","free_production",4323,5,"tick","tick carries Lyme disease",1
"258",12,"doesn't carry Lyme disease","free_production",6595,6,"fly","fly doesn't carry Lyme disease",0
"259",12,"is red","free_production",4857,7,"fox","fox is red",0
"260",12,"doesn't eat people","free_production",30479,8,"squirrel","squirrel doesn't eat people",0
"261",12,"is juvenile","free_production",8560,9,"puppy","puppy is juvenile",0
"262",12,"eats people","free_production",3423,10,"bear","bear eats people",0
"263",12,"doesn't attack swimmers","free_production",8844,11,"goldfish","goldfish doesn't attack swimmers",0
"264",12,"lays eggs","free_production",4349,12,"chicken","chicken lays eggs",0
"265",12,"has a mane","free_production",4625,13,"cat","cat has a mane",0
"266",12,"has beautiful feathers","free_production",4583,14,"peacock","peacock has beautiful feathers",1
"267",12,"is white","free_production",4428,15,"owl","owl is white",0
"268",12,"is female","free_production",3691,16,"doe","doe is female",0
"269",12,"is full-grown","free_production",7015,17,"buck","buck is full-grown",0
"270",12,"doesn't have beautiful feathers","free_production",16603,18,"rat","rat doesn't have beautiful feathers",0
"271",12,"is male","free_production",19353,19,"ram","ram is male",0
"272",12,"has spots","free_production",13528,20,"cheetah","cheetah has spots",0
"273",12,"doesn't carry malaria","free_production",8284,21,"stork","stork doesn't carry malaria",0
"274",13,"carries Lyme disease","free_production",5934,1,"tick","tick carries Lyme disease",1
"275",13,"is full-grown","free_production",7398,2,"cow","cow is full-grown",0
"276",13,"is juvenile","free_production",8999,3,"fly","fly is juvenile",0
"277",13,"eats people","free_production",22699,4,"lion","lion eats people",0
"278",13,"is female","free_production",6630,5,"deer","deer is female",0
"279",13,"has beautiful feathers","free_production",8618,6,"peacock","peacock has beautiful feathers",1
"280",13,"has spots","free_production",9340,7,"cow","cow has spots",0
"281",13,"is male","free_production",5170,8,"bull","bull is male",0
"282",13,"has a mane","free_production",6791,9,"lion","lion has a mane",1
"283",13,"lays eggs","free_production",5007,10,"snake","snake lays eggs",0
"284",13,"carries malaria","free_production",8671,11,"mosquito","mosquito carries malaria",1
"285",13,"doesn't attack swimmers","free_production",8936,12,"dog","dog doesn't attack swimmers",0
"286",13,"doesn't have beautiful feathers","free_production",9649,13,"crow","crow doesn't have beautiful feathers",0
"287",13,"is red","free_production",47966,14,"robin","robin is red",0
"288",13,"has wings","free_production",6596,15,"cardinal","cardinal has wings",0
"289",13,"attacks swimmers","free_production",5357,16,"shark","shark attacks swimmers",1
"290",13,"doesn't carry malaria","free_production",10278,17,"cow","cow doesn't carry malaria",0
"291",13,"doesn't eat people","free_production",5707,18,"cow","cow doesn't eat people",0
"292",13,"has a pouch","free_production",11095,19,"koala","koala has a pouch",0
"293",13,"doesn't carry Lyme disease","free_production",10982,20,"cow","cow doesn't carry Lyme disease",0
"294",13,"is white","free_production",7358,21,"polarbear","polarbear is white",0
"295",14,"carries Lyme disease","free_production",60733,1,"deer","deer carries Lyme disease",0
"296",14,"has spots","free_production",10990,2,"leopard","leopard has spots",1
"297",14,"lays eggs","free_production",11470,3,"chicken","chicken lays eggs",0
"298",14,"doesn't have beautiful feathers","free_production",22079,4,"dog","dog doesn't have beautiful feathers",0
"299",14,"has a pouch","free_production",40595,5,"kangaroo","kangaroo has a pouch",1
"300",14,"is full-grown","free_production",12025,6,"cow","cow is full-grown",0
"301",14,"carries malaria","free_production",37505,7,"mosquito","mosquito carries malaria",1
"302",14,"doesn't attack swimmers","free_production",21025,8,"goldfish","goldfish doesn't attack swimmers",0
"303",14,"is red","free_production",8642,9,"goldfish","goldfish is red",0
"304",14,"doesn't carry malaria","free_production",6754,10,"cat","cat doesn't carry malaria",0
"305",14,"is male","free_production",10906,11,"dog","dog is male",0
"306",14,"is white","free_production",17665,12,"horse","horse is white",0
"307",14,"has beautiful feathers","free_production",33624,13,"peacock","peacock has beautiful feathers",1
"308",14,"doesn't carry Lyme disease","free_production",9983,14,"cat","cat doesn't carry Lyme disease",0
"309",14,"doesn't eat people","free_production",9779,15,"fly","fly doesn't eat people",0
"310",14,"has wings","free_production",6920,16,"bird","bird has wings",0
"311",14,"eats people","free_production",15912,17,"shark","shark eats people",0
"312",14,"has a mane","free_production",5722,18,"lion","lion has a mane",1
"313",14,"is juvenile","free_production",10547,19,"tiger","tiger is juvenile",0
"314",14,"attacks swimmers","free_production",6411,20,"shark","shark attacks swimmers",1
"315",14,"is female","free_production",6287,21,"dog","dog is female",0
"316",15,"is red","free_production",9124,1,"ladybug","ladybug is red",0
"317",15,"has a pouch","free_production",5827,2,"kangaroo","kangaroo has a pouch",1
"318",15,"is male","free_production",5004,3,"dog","dog is male",0
"319",15,"is full-grown","free_production",9393,4,"bear","bear is full-grown",0
"320",15,"doesn't have beautiful feathers","free_production",14681,5,"crow","crow doesn't have beautiful feathers",0
"321",15,"doesn't attack swimmers","free_production",9054,6,"bird","bird doesn't attack swimmers",0
"322",15,"doesn't eat people","free_production",6234,7,"elephant","elephant doesn't eat people",0
"323",15,"lays eggs","free_production",6121,8,"cat","cat lays eggs",0
"324",15,"carries malaria","free_production",10440,9,"mosquito","mosquito carries malaria",1
"325",15,"is female","free_production",10932,10,"giraffe","giraffe is female",0
"326",15,"has wings","free_production",5266,11,"bird","bird has wings",0
"327",15,"is juvenile","free_production",11774,12,"worm","worm is juvenile",0
"328",15,"has beautiful feathers","free_production",4538,13,"ostrich","ostrich has beautiful feathers",0
"329",15,"doesn't carry Lyme disease","free_production",6216,14,"tiger","tiger doesn't carry Lyme disease",0
"330",15,"is white","free_production",5876,15,"leopard","leopard is white",0
"331",15,"has spots","free_production",6811,16,"leopard","leopard has spots",1
"332",15,"carries Lyme disease","free_production",6139,17,"mosquito","mosquito carries Lyme disease",0
"333",15,"has a mane","free_production",5310,18,"lion","lion has a mane",1
"334",15,"doesn't carry malaria","free_production",10308,19,"tiger","tiger doesn't carry malaria",0
"335",15,"eats people","free_production",23002,20,"shark","shark eats people",0
"336",15,"attacks swimmers","free_production",3852,21,"shark","shark attacks swimmers",1
"337",16,"is full-grown","free_production",12948,1,"butterfly","butterfly is full-grown",0
"338",16,"has spots","free_production",16317,2,"cheetah","cheetah has spots",0
"339",16,"is red","free_production",5630,3,"ladybug","ladybug is red",0
"340",16,"has a pouch","free_production",5655,4,"kangaroo","kangaroo has a pouch",1
"341",16,"doesn't eat people","free_production",8784,5,"horse","horse doesn't eat people",0
"342",16,"has a mane","free_production",7125,6,"lion","lion has a mane",1
"343",16,"is white","free_production",8671,7,"polarbear","polarbear is white",0
"344",16,"doesn't carry Lyme disease","free_production",11183,8,"panda","panda doesn't carry Lyme disease",0
"345",16,"eats people","free_production",7888,9,"tiger","tiger eats people",1
"346",16,"has beautiful feathers","free_production",4631,10,"peacock","peacock has beautiful feathers",1
"347",16,"has wings","free_production",4991,11,"fly","fly has wings",0
"348",16,"doesn't attack swimmers","free_production",5848,12,"zebra","zebra doesn't attack swimmers",0
"349",16,"attacks swimmers","free_production",3799,13,"shark","shark attacks swimmers",1
"350",16,"lays eggs","free_production",5312,14,"seaturtle","seaturtle lays eggs",0
"351",16,"is female","free_production",12072,15,"cat","cat is female",0
"352",16,"is juvenile","free_production",11292,16,"aligator","aligator is juvenile",0
"353",16,"doesn't carry malaria","free_production",12424,17,"sealion","sealion doesn't carry malaria",0
"354",16,"carries Lyme disease","free_production",6536,18,"tick","tick carries Lyme disease",1
"355",16,"doesn't have beautiful feathers","free_production",18359,19,"whale","whale doesn't have beautiful feathers",0
"356",16,"carries malaria","free_production",12312,20,"mosquito","mosquito carries malaria",1
"357",16,"is male","free_production",19255,21,"ram","ram is male",0
"358",17,"is full-grown","free_production",8544,1,"preyingmatni","preyingmatni is full-grown",0
"359",17,"has spots","free_production",22777,2,"ladybug","ladybug has spots",0
"360",17,"has wings","free_production",5629,3,"mosquito","mosquito has wings",0
"361",17,"is red","free_production",5368,4,"blackwidow","blackwidow is red",0
"362",17,"has beautiful feathers","free_production",14840,5,"bluemacaw","bluemacaw has beautiful feathers",0
"363",17,"is juvenile","free_production",6475,6,"ant","ant is juvenile",0
"364",17,"is female","free_production",7462,7,"beetle","beetle is female",0
"365",17,"eats people","free_production",5229,8,"termite","termite eats people",0
"366",17,"lays eggs","free_production",9189,9,"duck","duck lays eggs",0
"367",17,"carries malaria","free_production",6859,10,"mosquito","mosquito carries malaria",1
"368",17,"is white","free_production",20212,11,"larva","larva is white",0
"369",17,"doesn't carry malaria","free_production",7239,12,"wasp","wasp doesn't carry malaria",0
"370",17,"doesn't carry Lyme disease","free_production",4042,13,"bee","bee doesn't carry Lyme disease",0
"371",17,"doesn't eat people","free_production",12209,14,"rollypolly","rollypolly doesn't eat people",0
"372",17,"carries Lyme disease","free_production",5246,15,"tick","tick carries Lyme disease",1
"373",17,"doesn't attack swimmers","free_production",6859,16,"fly","fly doesn't attack swimmers",0
"374",17,"doesn't have beautiful feathers","free_production",4727,17,"lizard","lizard doesn't have beautiful feathers",0
"375",17,"is male","free_production",3158,18,"dog","dog is male",0
"376",17,"attacks swimmers","free_production",3981,19,"leech","leech attacks swimmers",0
"377",17,"has a mane","free_production",5531,20,"bee","bee has a mane",0
"378",17,"has a pouch","free_production",5148,21,"kangaroo","kangaroo has a pouch",1
"379",18,"has a mane","free_production",12516,1,"tiger","tiger has a mane",0
"380",18,"doesn't have beautiful feathers","free_production",9944,2,"lizard","lizard doesn't have beautiful feathers",0
"381",18,"doesn't carry Lyme disease","free_production",6413,3,"cat","cat doesn't carry Lyme disease",0
"382",18,"doesn't carry malaria","free_production",4818,4,"turkey","turkey doesn't carry malaria",0
"383",18,"has wings","free_production",4894,5,"owl","owl has wings",0
"384",18,"has a pouch","free_production",4614,6,"kangaroo","kangaroo has a pouch",1
"385",18,"carries malaria","free_production",6928,7,"bear","bear carries malaria",0
"386",18,"is white","free_production",7390,8,"panda","panda is white",0
"387",18,"is male","free_production",3631,9,"bear","bear is male",0
"388",18,"doesn't attack swimmers","free_production",7779,10,"bas","bas doesn't attack swimmers",0
"389",18,"doesn't eat people","free_production",3148,11,"bas","bas doesn't eat people",0
"390",18,"is female","free_production",7404,12,"trout","trout is female",0
"391",18,"has spots","free_production",5450,13,"eel","eel has spots",0
"392",18,"is full-grown","free_production",4324,14,"bear","bear is full-grown",0
"393",18,"is juvenile","free_production",9572,15,"cub","cub is juvenile",0
"394",18,"eats people","free_production",4241,16,"shark","shark eats people",0
"395",18,"is red","free_production",5269,17,"hippo","hippo is red",0
"396",18,"has beautiful feathers","free_production",5418,18,"bluejay","bluejay has beautiful feathers",0
"397",18,"lays eggs","free_production",4434,19,"chicken","chicken lays eggs",0
"398",18,"attacks swimmers","free_production",5346,20,"shark","shark attacks swimmers",1
"399",18,"carries Lyme disease","free_production",9180,21,"skunk","skunk carries Lyme disease",0
"400",19,"has wings","free_production",8393,1,"butterfly","butterfly has wings",0
"401",19,"is juvenile","free_production",8820,2,"rabbit","rabbit is juvenile",0
"402",19,"has beautiful feathers","free_production",6895,3,"peacock","peacock has beautiful feathers",1
"403",19,"is female","free_production",8417,4,"squirrel","squirrel is female",0
"404",19,"is full-grown","free_production",5014,5,"horse","horse is full-grown",0
"405",19,"is male","free_production",5810,6,"dog","dog is male",0
"406",19,"doesn't eat people","free_production",5742,7,"cat","cat doesn't eat people",0
"407",19,"is red","free_production",12641,8,"cardinal","cardinal is red",1
"408",19,"has a mane","free_production",4662,9,"horse","horse has a mane",0
"409",19,"carries malaria","free_production",7591,10,"mosquito","mosquito carries malaria",1
"410",19,"is white","free_production",4966,11,"sheep","sheep is white",0
"411",19,"has a pouch","free_production",5070,12,"kangaroo","kangaroo has a pouch",1
"412",19,"has spots","free_production",5723,13,"leopard","leopard has spots",1
"413",19,"eats people","free_production",9684,14,"shark","shark eats people",0
"414",19,"doesn't carry Lyme disease","free_production",11432,15,"lion","lion doesn't carry Lyme disease",0
"415",19,"attacks swimmers","free_production",7080,16,"shark","shark attacks swimmers",1
"416",19,"doesn't have beautiful feathers","free_production",22775,17,"cat","cat doesn't have beautiful feathers",0
"417",19,"lays eggs","free_production",5627,18,"hen","hen lays eggs",0
"418",19,"doesn't carry malaria","free_production",8906,19,"dolphin","dolphin doesn't carry malaria",0
"419",19,"carries Lyme disease","free_production",4507,20,"tick","tick carries Lyme disease",1
"420",19,"doesn't attack swimmers","free_production",7254,21,"cat","cat doesn't attack swimmers",0
"421",20,"is male","free_production",13437,1,"horse","horse is male",0
"422",20,"is full-grown","free_production",7849,2,"dog","dog is full-grown",0
"423",20,"lays eggs","free_production",7060,3,"spider","spider lays eggs",0
"424",20,"carries malaria","free_production",7170,4,"mosquito","mosquito carries malaria",1
"425",20,"has beautiful feathers","free_production",6944,5,"peacock","peacock has beautiful feathers",1
"426",20,"has wings","free_production",5382,6,"bird","bird has wings",0
"427",20,"has a mane","free_production",5259,7,"lion","lion has a mane",1
"428",20,"is female","free_production",6361,8,"cat","cat is female",0
"429",20,"doesn't eat people","free_production",5872,9,"lizard","lizard doesn't eat people",0
"430",20,"doesn't have beautiful feathers","free_production",13166,10,"fly","fly doesn't have beautiful feathers",0
"431",20,"is juvenile","free_production",12694,11,"bee","bee is juvenile",0
"432",20,"is red","free_production",5430,12,"fox","fox is red",0
"433",20,"eats people","free_production",5433,13,"bear","bear eats people",0
"434",20,"carries Lyme disease","free_production",4825,14,"tick","tick carries Lyme disease",1
"435",20,"has spots","free_production",5039,15,"cheeta","cheeta has spots",0
"436",20,"has a pouch","free_production",4760,16,"kangaroo","kangaroo has a pouch",1
"437",20,"attacks swimmers","free_production",5609,17,"shark","shark attacks swimmers",1
"438",20,"is white","free_production",10064,18,"polarbear","polarbear is white",0
"439",20,"doesn't carry malaria","free_production",16768,19,"nat","nat doesn't carry malaria",0
"440",20,"doesn't carry Lyme disease","free_production",13680,20,"catapiller","catapiller doesn't carry Lyme disease",0
"441",20,"doesn't attack swimmers","free_production",8233,21,"dolphin","dolphin doesn't attack swimmers",0
"442",21,"is full-grown","free_production",5923,1,"human","human is full-grown",0
"443",21,"eats people","free_production",9848,2,"wolf","wolf eats people",0
"444",21,"doesn't have beautiful feathers","free_production",8582,3,"duck","duck doesn't have beautiful feathers",0
"445",21,"has wings","free_production",3576,4,"bee","bee has wings",0
"446",21,"attacks swimmers","free_production",4340,5,"goose","goose attacks swimmers",0
"447",21,"is red","free_production",4098,6,"ladybug","ladybug is red",0
"448",21,"carries malaria","free_production",5349,7,"mosquito","mosquito carries malaria",1
"449",21,"is female","free_production",5386,8,"dog","dog is female",0
"450",21,"has beautiful feathers","free_production",3866,9,"peacock","peacock has beautiful feathers",1
"451",21,"doesn't eat people","free_production",7315,10,"cat","cat doesn't eat people",0
"452",21,"is male","free_production",3367,11,"dog","dog is male",0
"453",21,"has a pouch","free_production",3293,12,"kangaroo","kangaroo has a pouch",1
"454",21,"is white","free_production",7396,13,"sheep","sheep is white",0
"455",21,"has a mane","free_production",2855,14,"lion","lion has a mane",1
"456",21,"doesn't carry malaria","free_production",7291,15,"cow","cow doesn't carry malaria",0
"457",21,"lays eggs","free_production",3151,16,"chicken","chicken lays eggs",0
"458",21,"is juvenile","free_production",13597,17,"duck","duck is juvenile",0
"459",21,"doesn't attack swimmers","free_production",4903,18,"dolphin","dolphin doesn't attack swimmers",0
"460",21,"has spots","free_production",2391,19,"cow","cow has spots",0
"461",21,"doesn't carry Lyme disease","free_production",14048,20,"bull","bull doesn't carry Lyme disease",0
"462",21,"carries Lyme disease","free_production",3247,21,"deer","deer carries Lyme disease",0
"463",22,"is red","free_production",33773,1,"ant","ant is red",0
"464",22,"doesn't eat people","free_production",4557,2,"cow","cow doesn't eat people",0
"465",22,"has spots","free_production",13601,3,"dalmatian","dalmatian has spots",0
"466",22,"has a mane","free_production",6867,4,"horse","horse has a mane",0
"467",22,"is juvenile","free_production",10199,5,"puppy","puppy is juvenile",0
"468",22,"carries Lyme disease","free_production",5273,6,"tick","tick carries Lyme disease",1
"469",22,"has a pouch","free_production",5491,7,"opossum","opossum has a pouch",0
"470",22,"carries malaria","free_production",4338,8,"mosquito","mosquito carries malaria",1
"471",22,"is male","free_production",3947,9,"bull","bull is male",0
"472",22,"is female","free_production",14361,10,"spider","spider is female",0
"473",22,"has wings","free_production",3739,11,"bird","bird has wings",0
"474",22,"is white","free_production",7459,12,"dove","dove is white",0
"475",22,"attacks swimmers","free_production",4657,13,"shark","shark attacks swimmers",1
"476",22,"is full-grown","free_production",7516,14,"dog","dog is full-grown",0
"477",22,"doesn't have beautiful feathers","free_production",5222,15,"beetle","beetle doesn't have beautiful feathers",0
"478",22,"doesn't attack swimmers","free_production",7673,16,"manatee","manatee doesn't attack swimmers",0
"479",22,"lays eggs","free_production",4060,17,"turtle","turtle lays eggs",0
"480",22,"doesn't carry Lyme disease","free_production",18638,18,"koala","koala doesn't carry Lyme disease",0
"481",22,"eats people","free_production",5607,19,"tiger","tiger eats people",1
"482",22,"doesn't carry malaria","free_production",6617,20,"alligator","alligator doesn't carry malaria",0
"483",22,"has beautiful feathers","free_production",5101,21,"peacock","peacock has beautiful feathers",1
"484",23,"has wings","free_production",6199,1,"bird","bird has wings",0
"485",23,"has a pouch","free_production",7847,2,"kangaroo","kangaroo has a pouch",1
"486",23,"has a mane","free_production",4997,3,"lion","lion has a mane",1
"487",23,"doesn't carry Lyme disease","free_production",19824,4,"cockroache","cockroache doesn't carry Lyme disease",0
"488",23,"is juvenile","free_production",7824,5,"dog","dog is juvenile",0
"489",23,"is full-grown","free_production",8984,6,"gorilla","gorilla is full-grown",0
"490",23,"is male","free_production",11272,7,"shark","shark is male",0
"491",23,"attacks swimmers","free_production",7352,8,"shark","shark attacks swimmers",1
"492",23,"is red","free_production",6777,9,"redpanda","redpanda is red",0
"493",23,"doesn't have beautiful feathers","free_production",6432,10,"crow","crow doesn't have beautiful feathers",0
"494",23,"has beautiful feathers","free_production",6142,11,"peacock","peacock has beautiful feathers",1
"495",23,"carries malaria","free_production",8848,12,"mosquito","mosquito carries malaria",1
"496",23,"is white","free_production",6008,13,"swan","swan is white",1
"497",23,"doesn't carry malaria","free_production",9248,14,"polarbear","polarbear doesn't carry malaria",0
"498",23,"is female","free_production",10752,15,"cat","cat is female",0
"499",23,"doesn't attack swimmers","free_production",10280,16,"dolphin","dolphin doesn't attack swimmers",0
"500",23,"has spots","free_production",6479,17,"cow","cow has spots",0
"501",23,"eats people","free_production",8848,18,"maggot","maggot eats people",0
"502",23,"carries Lyme disease","free_production",3936,19,"tick","tick carries Lyme disease",1
"503",23,"lays eggs","free_production",5711,20,"chicken","chicken lays eggs",0
"504",23,"doesn't eat people","free_production",11728,21,"goat","goat doesn't eat people",0
"505",24,"eats people","free_production",12368,1,"lion","lion eats people",0
"506",24,"doesn't carry Lyme disease","free_production",7400,2,"dog","dog doesn't carry Lyme disease",0
"507",24,"carries Lyme disease","free_production",5224,3,"deer","deer carries Lyme disease",0
"508",24,"is male","free_production",12271,4,"bird","bird is male",0
"509",24,"is red","free_production",4417,5,"ball","ball is red",0
"510",24,"lays eggs","free_production",4727,6,"hen","hen lays eggs",0
"511",24,"doesn't eat people","free_production",5944,7,"dog","dog doesn't eat people",0
"512",24,"attacks swimmers","free_production",5265,8,"shark","shark attacks swimmers",1
"513",24,"carries malaria","free_production",6391,9,"mosquito","mosquito carries malaria",1
"514",24,"is full-grown","free_production",8568,10,"elephant","elephant is full-grown",0
"515",24,"has wings","free_production",4695,11,"bird","bird has wings",0
"516",24,"is female","free_production",7263,12,"butterfly","butterfly is female",0
"517",24,"doesn't carry malaria","free_production",8064,13,"tick","tick doesn't carry malaria",0
"518",24,"is juvenile","free_production",10696,14,"rabbit","rabbit is juvenile",0
"519",24,"doesn't attack swimmers","free_production",5097,15,"whale","whale doesn't attack swimmers",0
"520",24,"has a mane","free_production",4903,16,"horse","horse has a mane",0
"521",24,"has beautiful feathers","free_production",5177,17,"turkey","turkey has beautiful feathers",0
"522",24,"doesn't have beautiful feathers","free_production",5167,18,"hen","hen doesn't have beautiful feathers",0
"523",24,"has a pouch","free_production",7920,19,"kangaroo","kangaroo has a pouch",1
"524",24,"is white","free_production",8184,20,"duck","duck is white",0
"525",24,"has spots","free_production",25272,21,"leopard","leopard has spots",1
"526",25,"is full-grown","free_production",15032,1,"butterfly","butterfly is full-grown",0
"527",25,"has a pouch","free_production",4694,2,"kangaroo","kangaroo has a pouch",1
"528",25,"is female","free_production",4345,3,"cow","cow is female",0
"529",25,"carries Lyme disease","free_production",4564,4,"mosquito","mosquito carries Lyme disease",0
"530",25,"has a mane","free_production",3040,5,"lion","lion has a mane",1
"531",25,"is male","free_production",7294,6,"bull","bull is male",0
"532",25,"doesn't have beautiful feathers","free_production",24500,7,"fish","fish doesn't have beautiful feathers",0
"533",25,"eats people","free_production",7918,8,"shark","shark eats people",0
"534",25,"carries malaria","free_production",4630,9,"mosquito","mosquito carries malaria",1
"535",25,"lays eggs","free_production",5223,10,"chicken","chicken lays eggs",0
"536",25,"has wings","free_production",6495,11,"dragonfly","dragonfly has wings",0
"537",25,"doesn't attack swimmers","free_production",4159,12,"dolphin","dolphin doesn't attack swimmers",0
"538",25,"is white","free_production",6407,13,"dove","dove is white",0
"539",25,"is juvenile","free_production",5847,14,"puppy","puppy is juvenile",0
"540",25,"is red","free_production",6469,15,"ladybug","ladybug is red",0
"541",25,"has beautiful feathers","free_production",80049,16,"lovebird","lovebird has beautiful feathers",0
"542",25,"attacks swimmers","free_production",18230,17,"shark","shark attacks swimmers",1
"543",25,"doesn't carry Lyme disease","free_production",12486,18,"ant","ant doesn't carry Lyme disease",0
"544",25,"has spots","free_production",10742,19,"leopard","leopard has spots",1
"545",25,"doesn't carry malaria","free_production",19855,20,"cat","cat doesn't carry malaria",0
"546",25,"doesn't eat people","free_production",4542,21,"bird","bird doesn't eat people",0
"547",26,"doesn't carry malaria","free_production",15619,1,"fly","fly doesn't carry malaria",0
"548",26,"attacks swimmers","free_production",18644,2,"pirahna","pirahna attacks swimmers",0
"549",26,"has spots","free_production",9537,3,"leopard","leopard has spots",1
"550",26,"is female","free_production",10022,4,"lion","lion is female",0
"551",26,"has beautiful feathers","free_production",18693,5,"hummingbird","hummingbird has beautiful feathers",0
"552",26,"lays eggs","free_production",7639,6,"chicken","chicken lays eggs",0
"553",26,"doesn't attack swimmers","free_production",13189,7,"dolphin","dolphin doesn't attack swimmers",0
"554",26,"is juvenile","free_production",11604,8,"bear","bear is juvenile",0
"555",26,"has wings","free_production",7380,9,"bee","bee has wings",0
"556",26,"is full-grown","free_production",8569,10,"horse","horse is full-grown",0
"557",26,"carries Lyme disease","free_production",6102,11,"tick","tick carries Lyme disease",1
"558",26,"is white","free_production",8774,12,"dove","dove is white",0
"559",26,"is red","free_production",14500,13,"ladybug","ladybug is red",0
"560",26,"is male","free_production",16334,14,"cat","cat is male",0
"561",26,"doesn't carry Lyme disease","free_production",23006,15,"snail","snail doesn't carry Lyme disease",0
"562",26,"carries malaria","free_production",8549,16,"mosquito","mosquito carries malaria",1
"563",26,"doesn't eat people","free_production",22383,17,"koala","koala doesn't eat people",0
"564",26,"eats people","free_production",15328,18,"polarbear","polarbear eats people",0
"565",26,"doesn't have beautiful feathers","free_production",29485,19,"ostrich","ostrich doesn't have beautiful feathers",0
"566",26,"has a mane","free_production",34246,20,"pony","pony has a mane",0
"567",26,"has a pouch","free_production",6027,21,"kangaroo","kangaroo has a pouch",1
"568",27,"has wings","free_production",4836,1,"butterfly","butterfly has wings",0
"569",27,"doesn't eat people","free_production",4895,2,"cow","cow doesn't eat people",0
"570",27,"doesn't have beautiful feathers","free_production",8543,3,"lizard","lizard doesn't have beautiful feathers",0
"571",27,"has a mane","free_production",4030,4,"lion","lion has a mane",1
"572",27,"doesn't carry Lyme disease","free_production",6712,5,"giraffe","giraffe doesn't carry Lyme disease",0
"573",27,"carries Lyme disease","free_production",3705,6,"tick","tick carries Lyme disease",1
"574",27,"eats people","free_production",4719,7,"alligator","alligator eats people",0
"575",27,"carries malaria","free_production",5704,8,"mosquito","mosquito carries malaria",1
"576",27,"doesn't carry malaria","free_production",7463,9,"bat","bat doesn't carry malaria",0
"577",27,"has spots","free_production",3624,10,"leopard","leopard has spots",1
"578",27,"has a pouch","free_production",4895,11,"kangaroo","kangaroo has a pouch",1
"579",27,"is red","free_production",3896,12,"ladybug","ladybug is red",0
"580",27,"is full-grown","free_production",6415,13,"jaguar","jaguar is full-grown",0
"581",27,"is female","free_production",2975,14,"cat","cat is female",0
"582",27,"is male","free_production",3176,15,"dog","dog is male",0
"583",27,"has beautiful feathers","free_production",4624,16,"peacock","peacock has beautiful feathers",1
"584",27,"is juvenile","free_production",7128,17,"lamb","lamb is juvenile",0
"585",27,"doesn't attack swimmers","free_production",5776,18,"manatee","manatee doesn't attack swimmers",0
"586",27,"lays eggs","free_production",3376,19,"chicken","chicken lays eggs",0
"587",27,"is white","free_production",5329,20,"owl","owl is white",0
"588",27,"attacks swimmers","free_production",3822,21,"shark","shark attacks swimmers",1
"589",28,"is white","free_production",8925,1,"polarbear","polarbear is white",0
"590",28,"is juvenile","free_production",4703,2,"kitten","kitten is juvenile",0
"591",28,"doesn't have beautiful feathers","free_production",7681,3,"chicken","chicken doesn't have beautiful feathers",0
"592",28,"has wings","free_production",8131,4,"pigeon","pigeon has wings",0
"593",28,"carries Lyme disease","free_production",4963,5,"tick","tick carries Lyme disease",1
"594",28,"lays eggs","free_production",6532,6,"chicken","chicken lays eggs",0
"595",28,"has a mane","free_production",4900,7,"lion","lion has a mane",1
"596",28,"attacks swimmers","free_production",6178,8,"shark","shark attacks swimmers",1
"597",28,"carries malaria","free_production",11873,9,"mosquito","mosquito carries malaria",1
"598",28,"is red","free_production",5522,10,"ladybug","ladybug is red",0
"599",28,"has beautiful feathers","free_production",4727,11,"peacock","peacock has beautiful feathers",1
"600",28,"is female","free_production",8782,12,"calicocat","calicocat is female",0
"601",28,"has spots","free_production",6611,13,"dog","dog has spots",0
"602",28,"is full-grown","free_production",3782,14,"bear","bear is full-grown",0
"603",28,"doesn't eat people","free_production",5570,15,"rabbit","rabbit doesn't eat people",0
"604",28,"doesn't carry Lyme disease","free_production",8178,16,"iguana","iguana doesn't carry Lyme disease",0
"605",28,"doesn't carry malaria","free_production",8597,17,"wolf","wolf doesn't carry malaria",0
"606",28,"has a pouch","free_production",4531,18,"kangaroo","kangaroo has a pouch",1
"607",28,"is male","free_production",5271,19,"seahorse","seahorse is male",0
"608",28,"eats people","free_production",8706,20,"shark","shark eats people",0
"609",28,"doesn't attack swimmers","free_production",5287,21,"fish","fish doesn't attack swimmers",0
"610",29,"has a pouch","free_production",7779,1,"kangaroo","kangaroo has a pouch",1
"611",29,"is juvenile","free_production",5954,2,"puppy","puppy is juvenile",0
"612",29,"doesn't have beautiful feathers","free_production",6236,3,"cat","cat doesn't have beautiful feathers",0
"613",29,"has beautiful feathers","free_production",5160,4,"parrot","parrot has beautiful feathers",0
"614",29,"doesn't carry malaria","free_production",6830,5,"dog","dog doesn't carry malaria",0
"615",29,"has wings","free_production",8821,6,"mosquito","mosquito has wings",0
"616",29,"has spots","free_production",4255,7,"cow","cow has spots",0
"617",29,"is female","free_production",7487,8,"dog","dog is female",0
"618",29,"is full-grown","free_production",7459,9,"fish","fish is full-grown",0
"619",29,"has a mane","free_production",4541,10,"horse","horse has a mane",0
"620",29,"eats people","free_production",5230,11,"polarbear","polarbear eats people",0
"621",29,"is male","free_production",6671,12,"cat","cat is male",0
"622",29,"doesn't attack swimmers","free_production",7216,13,"dolphin","dolphin doesn't attack swimmers",0
"623",29,"lays eggs","free_production",4333,14,"chicken","chicken lays eggs",0
"624",29,"is red","free_production",7062,15,"robin","robin is red",0
"625",29,"carries malaria","free_production",6500,16,"mosquito","mosquito carries malaria",1
"626",29,"is white","free_production",6325,17,"dove","dove is white",0
"627",29,"carries Lyme disease","free_production",4124,18,"tick","tick carries Lyme disease",1
"628",29,"attacks swimmers","free_production",3880,19,"shark","shark attacks swimmers",1
"629",29,"doesn't eat people","free_production",7048,20,"grasshopper","grasshopper doesn't eat people",0
"630",29,"doesn't carry Lyme disease","free_production",6693,21,"flamingo","flamingo doesn't carry Lyme disease",0
"631",30,"carries Lyme disease","free_production",7557,1,"tick","tick carries Lyme disease",1
"632",30,"is red","free_production",5833,2,"ant","ant is red",0
"633",30,"has a pouch","free_production",10057,3,"kangaroo","kangaroo has a pouch",1
"634",30,"eats people","free_production",27120,4,"shark","shark eats people",0
"635",30,"attacks swimmers","free_production",22655,5,"alligator","alligator attacks swimmers",0
"636",30,"doesn't have beautiful feathers","free_production",24347,6,"cat","cat doesn't have beautiful feathers",0
"637",30,"has beautiful feathers","free_production",8949,7,"raven","raven has beautiful feathers",0
"638",30,"carries malaria","free_production",7082,8,"mosquito","mosquito carries malaria",1
"639",30,"doesn't carry Lyme disease","free_production",20350,9,"honeybee","honeybee doesn't carry Lyme disease",0
"640",30,"doesn't carry malaria","free_production",5842,10,"butterfly","butterfly doesn't carry malaria",0
"641",30,"is white","free_production",10996,11,"dove","dove is white",0
"642",30,"doesn't attack swimmers","free_production",7222,12,"chicken","chicken doesn't attack swimmers",0
"643",30,"has spots","free_production",6687,13,"pig","pig has spots",0
"644",30,"has a mane","free_production",5707,14,"lion","lion has a mane",1
"645",30,"lays eggs","free_production",7095,15,"spider","spider lays eggs",0
"646",30,"is full-grown","free_production",15782,16,"bear","bear is full-grown",0
"647",30,"has wings","free_production",6220,17,"crow","crow has wings",0
"648",30,"is juvenile","free_production",5018,18,"kid","kid is juvenile",0
"649",30,"is male","free_production",13903,19,"deer","deer is male",0
"650",30,"doesn't eat people","free_production",29330,20,"chicken","chicken doesn't eat people",0
"651",30,"is female","free_production",7887,21,"widow","widow is female",0
"652",31,"has spots","free_production",9959,1,"ladybug","ladybug has spots",0
"653",31,"is white","free_production",7191,2,"polarbear","polarbear is white",0
"654",31,"doesn't attack swimmers","free_production",10208,3,"dolphin","dolphin doesn't attack swimmers",0
"655",31,"attacks swimmers","free_production",6407,4,"shark","shark attacks swimmers",1
"656",31,"is juvenile","free_production",10094,5,"cub","cub is juvenile",0
"657",31,"doesn't carry malaria","free_production",29528,6,"cockroach","cockroach doesn't carry malaria",0
"658",31,"lays eggs","free_production",9720,7,"eagle","eagle lays eggs",0
"659",31,"eats people","free_production",15672,8,"crocodile","crocodile eats people",0
"660",31,"is male","free_production",7938,9,"stallion","stallion is male",0
"661",31,"has a pouch","free_production",7630,10,"kangaroo","kangaroo has a pouch",1
"662",31,"has beautiful feathers","free_production",6567,11,"peacock","peacock has beautiful feathers",1
"663",31,"doesn't have beautiful feathers","free_production",17616,12,"ostrich","ostrich doesn't have beautiful feathers",0
"664",31,"is red","free_production",14943,13,"fireant","fireant is red",0
"665",31,"is full-grown","free_production",11007,14,"mare","mare is full-grown",0
"666",31,"carries malaria","free_production",7599,15,"mosquito","mosquito carries malaria",1
"667",31,"has a mane","free_production",5984,16,"horse","horse has a mane",0
"668",31,"doesn't eat people","free_production",81846,17,"aardvark","aardvark doesn't eat people",0
"669",31,"has wings","free_production",7023,18,"dragonfly","dragonfly has wings",0
"670",31,"carries Lyme disease","free_production",4016,19,"tick","tick carries Lyme disease",1
"671",31,"is female","free_production",11721,20,"cow","cow is female",0
"672",31,"doesn't carry Lyme disease","free_production",9798,21,"ant","ant doesn't carry Lyme disease",0
"673",32,"eats people","free_production",9439,1,"bear","bear eats people",0
"674",32,"is female","free_production",4877,2,"deer","deer is female",0
"675",32,"lays eggs","free_production",4690,3,"duck","duck lays eggs",0
"676",32,"has spots","free_production",5971,4,"giraffe","giraffe has spots",0
"677",32,"attacks swimmers","free_production",4763,5,"shark","shark attacks swimmers",1
"678",32,"is male","free_production",5385,6,"lion","lion is male",1
"679",32,"has beautiful feathers","free_production",7080,7,"peacock","peacock has beautiful feathers",1
"680",32,"doesn't have beautiful feathers","free_production",6635,8,"pigeon","pigeon doesn't have beautiful feathers",0
"681",32,"is white","free_production",4011,9,"swan","swan is white",1
"682",32,"is juvenile","free_production",4629,10,"hyena","hyena is juvenile",0
"683",32,"doesn't attack swimmers","free_production",9224,11,"whale","whale doesn't attack swimmers",0
"684",32,"has a pouch","free_production",13399,12,"kangaroo","kangaroo has a pouch",1
"685",32,"doesn't carry malaria","free_production",7119,13,"dog","dog doesn't carry malaria",0
"686",32,"is red","free_production",3859,14,"fox","fox is red",0
"687",32,"has a mane","free_production",4488,15,"horse","horse has a mane",0
"688",32,"doesn't carry Lyme disease","free_production",5534,16,"goose","goose doesn't carry Lyme disease",0
"689",32,"is full-grown","free_production",11055,17,"aardvark","aardvark is full-grown",0
"690",32,"doesn't eat people","free_production",4947,18,"mouse","mouse doesn't eat people",0
"691",32,"carries Lyme disease","free_production",7463,19,"tick","tick carries Lyme disease",1
"692",32,"has wings","free_production",7103,20,"sparrow","sparrow has wings",0
"693",32,"carries malaria","free_production",6180,21,"mosquito","mosquito carries malaria",1
"694",33,"doesn't carry Lyme disease","free_production",13943,1,"cat","cat doesn't carry Lyme disease",0
"695",33,"is male","free_production",6692,2,"dog","dog is male",0
"696",33,"has a pouch","free_production",6952,3,"kangaroo","kangaroo has a pouch",1
"697",33,"is red","free_production",4052,4,"ladybug","ladybug is red",0
"698",33,"doesn't eat people","free_production",5352,5,"go","go doesn't eat people",0
"699",33,"attacks swimmers","free_production",5249,6,"shark","shark attacks swimmers",1
"700",33,"doesn't attack swimmers","free_production",3887,7,"seel","seel doesn't attack swimmers",0
"701",33,"carries malaria","free_production",8967,8,"mosquito","mosquito carries malaria",1
"702",33,"is female","free_production",4988,9,"cat","cat is female",0
"703",33,"is white","free_production",7763,10,"polarbear","polarbear is white",0
"704",33,"has a mane","free_production",87514,11,"horse","horse has a mane",0
"705",33,"is juvenile","free_production",12012,12,"ape","ape is juvenile",0
"706",33,"has beautiful feathers","free_production",3658,13,"peacock","peacock has beautiful feathers",1
"707",33,"has wings","free_production",2619,14,"bird","bird has wings",0
"708",33,"is full-grown","free_production",5343,15,"frog","frog is full-grown",0
"709",33,"doesn't have beautiful feathers","free_production",3894,16,"crow","crow doesn't have beautiful feathers",0
"710",33,"doesn't carry malaria","free_production",5578,17,"gerbil","gerbil doesn't carry malaria",0
"711",33,"eats people","free_production",3807,18,"alligator","alligator eats people",0
"712",33,"lays eggs","free_production",5331,19,"chicken","chicken lays eggs",0
"713",33,"carries Lyme disease","free_production",6420,20,"mosquito","mosquito carries Lyme disease",0
"714",33,"has spots","free_production",5232,21,"leopard","leopard has spots",1
"715",34,"attacks swimmers","free_production",29250,1,"piranha","piranha attacks swimmers",0
"716",34,"doesn't eat people","free_production",7863,2,"cow","cow doesn't eat people",0
"717",34,"eats people","free_production",12798,3,"bear","bear eats people",0
"718",34,"doesn't have beautiful feathers","free_production",15518,4,"ostrich","ostrich doesn't have beautiful feathers",0
"719",34,"is male","free_production",10711,5,"monkey","monkey is male",0
"720",34,"carries malaria","free_production",10015,6,"mosquito","mosquito carries malaria",1
"721",34,"has spots","free_production",10059,7,"leopard","leopard has spots",1
"722",34,"is red","free_production",22800,8,"mite","mite is red",0
"723",34,"is white","free_production",12911,9,"bunny","bunny is white",0
"724",34,"doesn't attack swimmers","free_production",14483,10,"trout","trout doesn't attack swimmers",0
"725",34,"has a pouch","free_production",10586,11,"platypu","platypu has a pouch",0
"726",34,"has wings","free_production",9577,12,"robin","robin has wings",0
"727",34,"is female","free_production",12638,13,"deer","deer is female",0
"728",34,"has beautiful feathers","free_production",10980,14,"peacock","peacock has beautiful feathers",1
"729",34,"doesn't carry Lyme disease","free_production",14557,15,"crocodile","crocodile doesn't carry Lyme disease",0
"730",34,"lays eggs","free_production",10910,16,"snake","snake lays eggs",0
"731",34,"doesn't carry malaria","free_production",14275,17,"earthworm","earthworm doesn't carry malaria",0
"732",34,"has a mane","free_production",7321,18,"lion","lion has a mane",1
"733",34,"is full-grown","free_production",14184,19,"elk","elk is full-grown",0
"734",34,"is juvenile","free_production",9560,20,"panda","panda is juvenile",0
"735",34,"carries Lyme disease","free_production",9644,21,"tick","tick carries Lyme disease",1
"736",35,"carries Lyme disease","free_production",5835,1,"tick","tick carries Lyme disease",1
"737",35,"has wings","free_production",3665,2,"fly","fly has wings",0
"738",35,"is full-grown","free_production",6124,3,"rhino","rhino is full-grown",0
"739",35,"doesn't carry malaria","free_production",5906,4,"dog","dog doesn't carry malaria",0
"740",35,"has a mane","free_production",4368,5,"lion","lion has a mane",1
"741",35,"doesn't eat people","free_production",14678,6,"giraffe","giraffe doesn't eat people",0
"742",35,"attacks swimmers","free_production",19918,7,"shark","shark attacks swimmers",1
"743",35,"has a pouch","free_production",7816,8,"kangaroo","kangaroo has a pouch",1
"744",35,"carries malaria","free_production",4994,9,"mosquito","mosquito carries malaria",1
"745",35,"is juvenile","free_production",42770,10,"monkey","monkey is juvenile",0
"746",35,"doesn't attack swimmers","free_production",12238,11,"dolphin","dolphin doesn't attack swimmers",0
"747",35,"is female","free_production",4678,12,"cat","cat is female",0
"748",35,"is red","free_production",13806,13,"dragonfly","dragonfly is red",0
"749",35,"eats people","free_production",13472,14,"leopard","leopard eats people",0
"750",35,"is white","free_production",8980,15,"polarbear","polarbear is white",0
"751",35,"has beautiful feathers","free_production",11370,16,"peacock","peacock has beautiful feathers",1
"752",35,"has spots","free_production",13006,17,"cheetah","cheetah has spots",0
"753",35,"doesn't carry Lyme disease","free_production",4764,18,"dog","dog doesn't carry Lyme disease",0
"754",35,"is male","free_production",5594,19,"lion","lion is male",1
"755",35,"doesn't have beautiful feathers","free_production",11556,20,"crow","crow doesn't have beautiful feathers",0
"756",35,"lays eggs","free_production",26958,21,"hawk","hawk lays eggs",0
"757",36,"has a mane","free_production",4224,1,"joomi","joomi has a mane",0
"758",36,"has beautiful feathers","free_production",3878,2,"peacock","peacock has beautiful feathers",1
"759",36,"carries malaria","free_production",4994,3,"mosquito","mosquito carries malaria",1
"760",36,"is male","free_production",3948,4,"man","man is male",0
"761",36,"has spots","free_production",7064,5,"leopard","leopard has spots",1
"762",36,"eats people","free_production",3946,6,"hippo","hippo eats people",0
"763",36,"is female","free_production",2789,7,"woman","woman is female",0
"764",36,"doesn't eat people","free_production",3367,8,"dog","dog doesn't eat people",0
"765",36,"has wings","free_production",2664,9,"bird","bird has wings",0
"766",36,"is full-grown","free_production",3180,10,"elephant","elephant is full-grown",0
"767",36,"doesn't attack swimmers","free_production",2637,11,"seal","seal doesn't attack swimmers",0
"768",36,"lays eggs","free_production",2884,12,"turtle","turtle lays eggs",0
"769",36,"is white","free_production",2919,13,"chicken","chicken is white",0
"770",36,"doesn't have beautiful feathers","free_production",2616,14,"chicken","chicken doesn't have beautiful feathers",0
"771",36,"is juvenile","free_production",4247,15,"crab","crab is juvenile",0
"772",36,"has a pouch","free_production",2681,16,"kangaroo","kangaroo has a pouch",1
"773",36,"is red","free_production",3450,17,"robin","robin is red",0
"774",36,"attacks swimmers","free_production",2951,18,"shark","shark attacks swimmers",1
"775",36,"carries Lyme disease","free_production",2772,19,"tick","tick carries Lyme disease",1
"776",36,"doesn't carry Lyme disease","free_production",5631,20,"rabbit","rabbit doesn't carry Lyme disease",0
"777",36,"doesn't carry malaria","free_production",5888,21,"flie","flie doesn't carry malaria",0
"778",37,"has a mane","free_production",6623,1,"lion","lion has a mane",1
"779",37,"attacks swimmers","free_production",7089,2,"shark","shark attacks swimmers",1
"780",37,"eats people","free_production",7445,3,"mosquito","mosquito eats people",0
"781",37,"has a pouch","free_production",3931,4,"kangaroo","kangaroo has a pouch",1
"782",37,"has wings","free_production",5898,5,"bird","bird has wings",0
"783",37,"doesn't have beautiful feathers","free_production",5594,6,"chicken","chicken doesn't have beautiful feathers",0
"784",37,"has spots","free_production",3864,7,"dalmation","dalmation has spots",0
"785",37,"doesn't attack swimmers","free_production",4701,8,"fish","fish doesn't attack swimmers",0
"786",37,"carries Lyme disease","free_production",2971,9,"tick","tick carries Lyme disease",1
"787",37,"is red","free_production",11977,10,"ladybug","ladybug is red",0
"788",37,"is juvenile","free_production",7448,11,"joey","joey is juvenile",0
"789",37,"lays eggs","free_production",5607,12,"flie","flie lays eggs",0
"790",37,"doesn't carry Lyme disease","free_production",10775,13,"bird","bird doesn't carry Lyme disease",0
"791",37,"has beautiful feathers","free_production",7193,14,"peacock","peacock has beautiful feathers",1
"792",37,"is full-grown","free_production",7339,15,"giraffe","giraffe is full-grown",0
"793",37,"is female","free_production",12582,16,"workerbee","workerbee is female",0
"794",37,"doesn't carry malaria","free_production",6305,17,"tiger","tiger doesn't carry malaria",0
"795",37,"doesn't eat people","free_production",4206,18,"dog","dog doesn't eat people",0
"796",37,"is white","free_production",5156,19,"goat","goat is white",0
"797",37,"is male","free_production",12176,20,"tiger","tiger is male",0
"798",37,"carries malaria","free_production",5263,21,"mosquito","mosquito carries malaria",1
"799",38,"is full-grown","free_production",9511,1,"cat","cat is full-grown",0
"800",38,"has a pouch","free_production",6580,2,"kangaroo","kangaroo has a pouch",1
"801",38,"carries Lyme disease","free_production",5376,3,"tick","tick carries Lyme disease",1
"802",38,"lays eggs","free_production",4060,4,"chicken","chicken lays eggs",0
"803",38,"is male","free_production",5398,5,"dog","dog is male",0
"804",38,"doesn't attack swimmers","free_production",6706,6,"duck","duck doesn't attack swimmers",0
"805",38,"doesn't eat people","free_production",6330,7,"mouse","mouse doesn't eat people",0
"806",38,"doesn't carry malaria","free_production",37917,8,"cat","cat doesn't carry malaria",0
"807",38,"is red","free_production",5390,9,"bird","bird is red",0
"808",38,"has wings","free_production",4796,10,"bird","bird has wings",0
"809",38,"doesn't carry Lyme disease","free_production",6924,11,"bird","bird doesn't carry Lyme disease",0
"810",38,"doesn't have beautiful feathers","free_production",5986,12,"cat","cat doesn't have beautiful feathers",0
"811",38,"is white","free_production",4366,13,"chicken","chicken is white",0
"812",38,"is female","free_production",3264,14,"cat","cat is female",0
"813",38,"carries malaria","free_production",4216,15,"bat","bat carries malaria",0
"814",38,"is juvenile","free_production",3756,16,"kitten","kitten is juvenile",0
"815",38,"has a mane","free_production",3256,17,"horse","horse has a mane",0
"816",38,"has spots","free_production",3426,18,"cow","cow has spots",0
"817",38,"attacks swimmers","free_production",6840,19,"alligator","alligator attacks swimmers",0
"818",38,"eats people","free_production",6814,20,"alligator","alligator eats people",0
"819",38,"has beautiful feathers","free_production",4984,21,"peacock","peacock has beautiful feathers",1
"820",39,"doesn't carry malaria","free_production",13755,1,"dog","dog doesn't carry malaria",0
"821",39,"doesn't attack swimmers","free_production",19142,2,"dolphin","dolphin doesn't attack swimmers",0
"822",39,"lays eggs","free_production",7228,3,"duck","duck lays eggs",0
"823",39,"is male","free_production",8401,4,"monkey","monkey is male",0
"824",39,"is red","free_production",4111,5,"robin","robin is red",0
"825",39,"carries malaria","free_production",7022,6,"mosquito","mosquito carries malaria",1
"826",39,"is white","free_production",4944,7,"swan","swan is white",1
"827",39,"attacks swimmers","free_production",7036,8,"shark","shark attacks swimmers",1
"828",39,"has spots","free_production",10360,9,"leopard","leopard has spots",1
"829",39,"is female","free_production",3998,10,"cat","cat is female",0
"830",39,"has wings","free_production",2906,11,"bat","bat has wings",0
"831",39,"has beautiful feathers","free_production",6778,12,"peacock","peacock has beautiful feathers",1
"832",39,"doesn't carry Lyme disease","free_production",9164,13,"bird","bird doesn't carry Lyme disease",0
"833",39,"doesn't have beautiful feathers","free_production",9293,14,"crow","crow doesn't have beautiful feathers",0
"834",39,"has a mane","free_production",6365,15,"lion","lion has a mane",1
"835",39,"has a pouch","free_production",5458,16,"kangaroo","kangaroo has a pouch",1
"836",39,"eats people","free_production",8606,17,"tiger","tiger eats people",1
"837",39,"is juvenile","free_production",26969,18,"monkey","monkey is juvenile",0
"838",39,"doesn't eat people","free_production",5137,19,"dog","dog doesn't eat people",0
"839",39,"is full-grown","free_production",4970,20,"elephant","elephant is full-grown",0
"840",39,"carries Lyme disease","free_production",3456,21,"tick","tick carries Lyme disease",1
"841",40,"doesn't carry Lyme disease","free_production",8856,1,"flea","flea doesn't carry Lyme disease",0
"842",40,"carries Lyme disease","free_production",5384,2,"tick","tick carries Lyme disease",1
"843",40,"is white","free_production",3212,3,"swan","swan is white",1
"844",40,"has wings","free_production",5289,4,"robin","robin has wings",0
"845",40,"is juvenile","free_production",3441,5,"deer","deer is juvenile",0
"846",40,"doesn't have beautiful feathers","free_production",10495,6,"badger","badger doesn't have beautiful feathers",0
"847",40,"is full-grown","free_production",8619,7,"grasshopper","grasshopper is full-grown",0
"848",40,"lays eggs","free_production",4442,8,"butterfly","butterfly lays eggs",0
"849",40,"is female","free_production",5747,9,"frog","frog is female",0
"850",40,"has spots","free_production",4776,10,"deer","deer has spots",0
"851",40,"has beautiful feathers","free_production",5368,11,"cardinal","cardinal has beautiful feathers",0
"852",40,"doesn't carry malaria","free_production",8766,12,"cricket","cricket doesn't carry malaria",0
"853",40,"is male","free_production",9565,13,"bullfrog","bullfrog is male",0
"854",40,"has a mane","free_production",7956,14,"horse","horse has a mane",0
"855",40,"has a pouch","free_production",5802,15,"koala","koala has a pouch",0
"856",40,"carries malaria","free_production",7065,16,"mosquito","mosquito carries malaria",1
"857",40,"doesn't attack swimmers","free_production",8367,17,"angelfish","angelfish doesn't attack swimmers",0
"858",40,"doesn't eat people","free_production",32436,18,"kingfisherbird","kingfisherbird doesn't eat people",0
"859",40,"attacks swimmers","free_production",18558,19,"anaconda","anaconda attacks swimmers",0
"860",40,"is red","free_production",26895,20,"ladybug","ladybug is red",0
"861",40,"eats people","free_production",18204,21,"tigershark","tigershark eats people",0
"862",41,"doesn't have beautiful feathers","free_production",8859,1,"penguin","penguin doesn't have beautiful feathers",0
"863",41,"doesn't carry Lyme disease","free_production",8945,2,"bee","bee doesn't carry Lyme disease",0
"864",41,"is white","free_production",12684,3,"polarbear","polarbear is white",0
"865",41,"is juvenile","free_production",5595,4,"calf","calf is juvenile",0
"866",41,"carries Lyme disease","free_production",13281,5,"emu","emu carries Lyme disease",0
"867",41,"lays eggs","free_production",6333,6,"chicken","chicken lays eggs",0
"868",41,"has wings","free_production",7886,7,"bird","bird has wings",0
"869",41,"has beautiful feathers","free_production",5500,8,"peacock","peacock has beautiful feathers",1
"870",41,"is red","free_production",6230,9,"ant","ant is red",0
"871",41,"has a pouch","free_production",5654,10,"kangaroo","kangaroo has a pouch",1
"872",41,"is female","free_production",16235,11,"lion","lion is female",0
"873",41,"doesn't attack swimmers","free_production",9038,12,"dolphin","dolphin doesn't attack swimmers",0
"874",41,"carries malaria","free_production",6172,13,"mosquito","mosquito carries malaria",1
"875",41,"has a mane","free_production",5686,14,"horse","horse has a mane",0
"876",41,"is full-grown","free_production",8601,15,"elephant","elephant is full-grown",0
"877",41,"doesn't eat people","free_production",7449,16,"fly","fly doesn't eat people",0
"878",41,"attacks swimmers","free_production",5306,17,"shark","shark attacks swimmers",1
"879",41,"has spots","free_production",10892,18,"leopard","leopard has spots",1
"880",41,"doesn't carry malaria","free_production",8726,19,"wasp","wasp doesn't carry malaria",0
"881",41,"is male","free_production",4631,20,"lion","lion is male",1
"882",41,"eats people","free_production",7822,21,"tiger","tiger eats people",1
"883",42,"has wings","free_production",9273,1,"bird","bird has wings",0
"884",42,"is red","free_production",9059,2,"bird","bird is red",0
"885",42,"doesn't carry malaria","free_production",65665,3,"bear","bear doesn't carry malaria",0
"886",42,"doesn't eat people","free_production",44495,4,"hamster","hamster doesn't eat people",0
"887",42,"eats people","free_production",25489,5,"bear","bear eats people",0
"888",42,"doesn't attack swimmers","free_production",7735,6,"goldfish","goldfish doesn't attack swimmers",0
"889",42,"doesn't carry Lyme disease","free_production",29469,7,"koalabear","koalabear doesn't carry Lyme disease",0
"890",42,"is male","free_production",10925,8,"dog","dog is male",0
"891",42,"is juvenile","free_production",14514,9,"puppy","puppy is juvenile",0
"892",42,"carries malaria","free_production",21419,10,"mosquito","mosquito carries malaria",1
"893",42,"lays eggs","free_production",23356,11,"chicken","chicken lays eggs",0
"894",42,"has beautiful feathers","free_production",36520,12,"peacock","peacock has beautiful feathers",1
"895",42,"has spots","free_production",14582,13,"leopard","leopard has spots",1
"896",42,"is white","free_production",10083,14,"polarbear","polarbear is white",0
"897",42,"carries Lyme disease","free_production",5482,15,"tick","tick carries Lyme disease",1
"898",42,"has a mane","free_production",6655,16,"lion","lion has a mane",1
"899",42,"has a pouch","free_production",7276,17,"kangaroo","kangaroo has a pouch",1
"900",42,"attacks swimmers","free_production",8688,18,"shark","shark attacks swimmers",1
"901",42,"is full-grown","free_production",6990,19,"dog","dog is full-grown",0
"902",42,"doesn't have beautiful feathers","free_production",26797,20,"shark","shark doesn't have beautiful feathers",0
"903",42,"is female","free_production",6890,21,"dog","dog is female",0
"904",43,"carries Lyme disease","free_production",11710,1,"fly","fly carries Lyme disease",0
"905",43,"doesn't have beautiful feathers","free_production",6207,2,"chicken","chicken doesn't have beautiful feathers",0
"906",43,"has beautiful feathers","free_production",11887,3,"peacock","peacock has beautiful feathers",1
"907",43,"lays eggs","free_production",4648,4,"fish","fish lays eggs",0
"908",43,"doesn't attack swimmers","free_production",8944,5,"cat","cat doesn't attack swimmers",0
"909",43,"is white","free_production",4631,6,"polarbear","polarbear is white",0
"910",43,"is female","free_production",9320,7,"dog","dog is female",0
"911",43,"carries malaria","free_production",4656,8,"mosquito","mosquito carries malaria",1
"912",43,"doesn't carry malaria","free_production",5440,9,"elephant","elephant doesn't carry malaria",0
"913",43,"has a mane","free_production",3137,10,"lion","lion has a mane",1
"914",43,"is juvenile","free_production",4426,11,"kitten","kitten is juvenile",0
"915",43,"eats people","free_production",5819,12,"tiger","tiger eats people",1
"916",43,"has a pouch","free_production",3984,13,"kangaroo","kangaroo has a pouch",1
"917",43,"is full-grown","free_production",8568,14,"bear","bear is full-grown",0
"918",43,"doesn't eat people","free_production",7552,15,"ant","ant doesn't eat people",0
"919",43,"is male","free_production",4464,16,"jaguar","jaguar is male",0
"920",43,"has wings","free_production",4416,17,"bird","bird has wings",0
"921",43,"has spots","free_production",36561,18,"butterfly","butterfly has spots",0
"922",43,"attacks swimmers","free_production",3272,19,"shark","shark attacks swimmers",1
"923",43,"doesn't carry Lyme disease","free_production",6152,20,"zebra","zebra doesn't carry Lyme disease",0
"924",43,"is red","free_production",9784,21,"parrot","parrot is red",0
"925",44,"lays eggs","free_production",13070,1,"chicken","chicken lays eggs",0
"926",44,"doesn't attack swimmers","free_production",19486,2,"tunafish","tunafish doesn't attack swimmers",0
"927",44,"carries Lyme disease","free_production",4556,3,"deer","deer carries Lyme disease",0
"928",44,"doesn't carry Lyme disease","free_production",9037,4,"tiger","tiger doesn't carry Lyme disease",0
"929",44,"is full-grown","free_production",4726,5,"lion","lion is full-grown",0
"930",44,"doesn't eat people","free_production",6620,6,"horse","horse doesn't eat people",0
"931",44,"carries malaria","free_production",7321,7,"mosquito","mosquito carries malaria",1
"932",44,"doesn't carry malaria","free_production",5958,8,"bee","bee doesn't carry malaria",0
"933",44,"is female","free_production",4387,9,"dog","dog is female",0
"934",44,"is male","free_production",3330,10,"cat","cat is male",0
"935",44,"has beautiful feathers","free_production",9704,11,"peacock","peacock has beautiful feathers",1
"936",44,"has spots","free_production",65263,12,"leopard","leopard has spots",1
"937",44,"is red","free_production",6968,13,"goldfish","goldfish is red",0
"938",44,"has a mane","free_production",5513,14,"lion","lion has a mane",1
"939",44,"has wings","free_production",4292,15,"bird","bird has wings",0
"940",44,"has a pouch","free_production",6122,16,"kangaroo","kangaroo has a pouch",1
"941",44,"is juvenile","free_production",15748,17,"ape","ape is juvenile",0
"942",44,"is white","free_production",8172,18,"sheep","sheep is white",0
"943",44,"doesn't have beautiful feathers","free_production",44850,19,"pigeon","pigeon doesn't have beautiful feathers",0
"944",44,"attacks swimmers","free_production",15217,20,"tiger","tiger attacks swimmers",0
"945",44,"eats people","free_production",23812,21,"mosquito","mosquito eats people",0
"946",45,"doesn't attack swimmers","free_production",5634,1,"shark","shark doesn't attack swimmers",1
"947",45,"doesn't carry Lyme disease","free_production",4330,2,"ant","ant doesn't carry Lyme disease",0
"948",45,"lays eggs","free_production",3709,3,"chicken","chicken lays eggs",0
"949",45,"carries malaria","free_production",4379,4,"mosquito","mosquito carries malaria",1
"950",45,"is red","free_production",3639,5,"beetle","beetle is red",0
"951",45,"doesn't have beautiful feathers","free_production",5718,6,"crow","crow doesn't have beautiful feathers",0
"952",45,"has wings","free_production",3274,7,"eagle","eagle has wings",0
"953",45,"doesn't eat people","free_production",6418,8,"dog","dog doesn't eat people",0
"954",45,"doesn't carry malaria","free_production",3761,9,"ant","ant doesn't carry malaria",0
"955",45,"is male","free_production",3226,10,"human","human is male",0
"956",45,"is juvenile","free_production",3859,11,"chick","chick is juvenile",0
"957",45,"attacks swimmers","free_production",4414,12,"shark","shark attacks swimmers",1
"958",45,"is white","free_production",7674,13,"seal","seal is white",0
"959",45,"has beautiful feathers","free_production",3011,14,"peacock","peacock has beautiful feathers",1
"960",45,"has a pouch","free_production",4498,15,"kangaroo","kangaroo has a pouch",1
"961",45,"carries Lyme disease","free_production",2644,16,"tick","tick carries Lyme disease",1
"962",45,"has spots","free_production",2743,17,"cheetah","cheetah has spots",0
"963",45,"eats people","free_production",4865,18,"alligator","alligator eats people",0
"964",45,"has a mane","free_production",2455,19,"horse","horse has a mane",0
"965",45,"is female","free_production",3311,20,"hen","hen is female",0
"966",45,"is full-grown","free_production",8605,21,"cat","cat is full-grown",0
"967",46,"lays eggs","free_production",5253,1,"chicken","chicken lays eggs",0
"968",46,"doesn't attack swimmers","free_production",8901,2,"butterfly","butterfly doesn't attack swimmers",0
"969",46,"has a mane","free_production",5836,3,"horse","horse has a mane",0
"970",46,"is full-grown","free_production",7081,4,"bear","bear is full-grown",0
"971",46,"is juvenile","free_production",5340,5,"rabbit","rabbit is juvenile",0
"972",46,"eats people","free_production",6414,6,"lion","lion eats people",0
"973",46,"doesn't have beautiful feathers","free_production",11105,7,"monkey","monkey doesn't have beautiful feathers",0
"974",46,"carries Lyme disease","free_production",10760,8,"mouse","mouse carries Lyme disease",0
"975",46,"is female","free_production",5074,9,"frog","frog is female",0
"976",46,"doesn't eat people","free_production",9072,10,"hummingbird","hummingbird doesn't eat people",0
"977",46,"has spots","free_production",4568,11,"leopard","leopard has spots",1
"978",46,"is white","free_production",6650,12,"polarbear","polarbear is white",0
"979",46,"has wings","free_production",5341,13,"hawk","hawk has wings",0
"980",46,"attacks swimmers","free_production",4719,14,"shark","shark attacks swimmers",1
"981",46,"is male","free_production",6830,15,"pig","pig is male",0
"982",46,"has beautiful feathers","free_production",5540,16,"peacock","peacock has beautiful feathers",1
"983",46,"doesn't carry malaria","free_production",7811,17,"raccoon","raccoon doesn't carry malaria",0
"984",46,"is red","free_production",7222,18,"redpanda","redpanda is red",0
"985",46,"doesn't carry Lyme disease","free_production",5725,19,"goat","goat doesn't carry Lyme disease",0
"986",46,"carries malaria","free_production",6328,20,"mosquito","mosquito carries malaria",1
"987",46,"has a pouch","free_production",4848,21,"kangaroo","kangaroo has a pouch",1
"988",47,"has wings","free_production",7453,1,"bird","bird has wings",0
"989",47,"is female","free_production",5358,2,"dog","dog is female",0
"990",47,"carries malaria","free_production",5474,3,"mosquito","mosquito carries malaria",1
"991",47,"eats people","free_production",7544,4,"crocodile","crocodile eats people",0
"992",47,"is full-grown","free_production",9115,5,"spider","spider is full-grown",0
"993",47,"lays eggs","free_production",6459,6,"fish","fish lays eggs",0
"994",47,"carries Lyme disease","free_production",7692,7,"tick","tick carries Lyme disease",1
"995",47,"is white","free_production",8156,8,"zebra","zebra is white",0
"996",47,"has a mane","free_production",4872,9,"horse","horse has a mane",0
"997",47,"doesn't eat people","free_production",5409,10,"bunny","bunny doesn't eat people",0
"998",47,"doesn't carry Lyme disease","free_production",8011,11,"ant","ant doesn't carry Lyme disease",0
"999",47,"doesn't carry malaria","free_production",7026,12,"butterfly","butterfly doesn't carry malaria",0
"1000",47,"is juvenile","free_production",7355,13,"chimpanzee","chimpanzee is juvenile",0
"1001",47,"doesn't attack swimmers","free_production",5384,14,"goldfish","goldfish doesn't attack swimmers",0
"1002",47,"doesn't have beautiful feathers","free_production",7622,15,"ostrich","ostrich doesn't have beautiful feathers",0
"1003",47,"attacks swimmers","free_production",4929,16,"shark","shark attacks swimmers",1
"1004",47,"has a pouch","free_production",5034,17,"kangaroo","kangaroo has a pouch",1
"1005",47,"is male","free_production",7340,18,"bear","bear is male",0
"1006",47,"has spots","free_production",5207,19,"leopard","leopard has spots",1
"1007",47,"is red","free_production",4446,20,"cardinal","cardinal is red",1
"1008",47,"has beautiful feathers","free_production",5444,21,"peacock","peacock has beautiful feathers",1
"1009",48,"has spots","free_production",24606,1,"dog","dog has spots",0
"1010",48,"is male","free_production",13972,2,"cow","cow is male",0
"1011",48,"is female","free_production",13117,3,"sheep","sheep is female",0
"1012",48,"doesn't have beautiful feathers","free_production",11557,4,"insect","insect doesn't have beautiful feathers",0
"1013",48,"doesn't carry Lyme disease","free_production",8579,5,"insect","insect doesn't carry Lyme disease",0
"1014",48,"is juvenile","free_production",36419,6,"foal","foal is juvenile",0
"1015",48,"has beautiful feathers","free_production",20014,7,"bird","bird has beautiful feathers",0
"1016",48,"doesn't eat people","free_production",6709,8,"cat","cat doesn't eat people",0
"1017",48,"doesn't carry malaria","free_production",7790,9,"kitten","kitten doesn't carry malaria",0
"1018",48,"carries malaria","free_production",19277,10,"mosquito","mosquito carries malaria",1
"1019",48,"attacks swimmers","free_production",6643,11,"shark","shark attacks swimmers",1
"1020",48,"carries Lyme disease","free_production",85268,12,"insect","insect carries Lyme disease",0
"1021",48,"eats people","free_production",7211,13,"lion","lion eats people",0
"1022",48,"has a pouch","free_production",18978,14,"kangaroo","kangaroo has a pouch",1
"1023",48,"is red","free_production",47998,15,"bug","bug is red",0
"1024",48,"doesn't attack swimmers","free_production",8031,16,"bird","bird doesn't attack swimmers",0
"1025",48,"is full-grown","free_production",5977,17,"bear","bear is full-grown",0
"1026",48,"lays eggs","free_production",4949,18,"chicken","chicken lays eggs",0
"1027",48,"has a mane","free_production",19753,19,"horse","horse has a mane",0
"1028",48,"has wings","free_production",4070,20,"bird","bird has wings",0
"1029",48,"is white","free_production",10761,21,"cat","cat is white",0
"1030",49,"has a pouch","free_production",4905,1,"marsupial","marsupial has a pouch",0
"1031",49,"doesn't attack swimmers","free_production",6133,2,"fish","fish doesn't attack swimmers",0
"1032",49,"is full-grown","free_production",7512,3,"matureanimal","matureanimal is full-grown",0
"1033",49,"carries malaria","free_production",3432,4,"fly","fly carries malaria",0
"1034",49,"doesn't have beautiful feathers","free_production",4454,5,"ostrich","ostrich doesn't have beautiful feathers",0
"1035",49,"has wings","free_production",4559,6,"housefly","housefly has wings",0
"1036",49,"is red","free_production",4880,7,"cardinal","cardinal is red",1
"1037",49,"eats people","free_production",9423,8,"crocodile","crocodile eats people",0
"1038",49,"has beautiful feathers","free_production",3551,9,"peacock","peacock has beautiful feathers",1
"1039",49,"is white","free_production",9520,10,"bichon","bichon is white",0
"1040",49,"doesn't carry Lyme disease","free_production",5015,11,"dog","dog doesn't carry Lyme disease",0
"1041",49,"attacks swimmers","free_production",2352,12,"shark","shark attacks swimmers",1
"1042",49,"doesn't carry malaria","free_production",3168,13,"cat","cat doesn't carry malaria",0
"1043",49,"is female","free_production",6208,14,"femaleanimal","femaleanimal is female",0
"1044",49,"has spots","free_production",3359,15,"leopard","leopard has spots",1
"1045",49,"has a mane","free_production",2639,16,"lion","lion has a mane",1
"1046",49,"doesn't eat people","free_production",3416,17,"dog","dog doesn't eat people",0
"1047",49,"is male","free_production",3847,18,"maleanimal","maleanimal is male",0
"1048",49,"carries Lyme disease","free_production",4016,19,"tick","tick carries Lyme disease",1
"1049",49,"lays eggs","free_production",5896,20,"robin","robin lays eggs",1
"1050",49,"is juvenile","free_production",7671,21,"puppy","puppy is juvenile",0
