"workerid","rt","trial_type","response","sentence","Category","Property"
0,3482,"truthJudge","disagree-key","Sharks are white.","Sharks","are white"
0,1511,"truthJudge","disagree-key","Peacocks dont have beautiful feathers.","Peacocks","dont have beautiful feathers"
0,1595,"truthJudge","disagree-key","Ticks dont carry Lyme disease.","Ticks","dont carry Lyme disease"
0,1144,"truthJudge","disagree-key","Lions are male.","Lions","are male"
0,3589,"truthJudge","agree-key","Robins carry malaria.","Robins","carry malaria"
0,813,"truthJudge","agree-key","Robins lay eggs.","Robins","lay eggs"
0,923,"truthJudge","agree-key","Swans are white.","Swans","are white"
0,1901,"truthJudge","disagree-key","Tigers have pouches.","Tigers","have pouches"
0,1073,"truthJudge","agree-key","Sharks attack swimmers.","Sharks","attack swimmers"
0,1344,"truthJudge","agree-key","Kangaroos have pouches.","Kangaroos","have pouches"
0,1469,"truthJudge","disagree-key","Kangaroos have spots.","Kangaroos","have spots"
0,1856,"truthJudge","agree-key","Robins are female.","Robins","are female"
0,3065,"truthJudge","disagree-key","Leopards have wings.","Leopards","have wings"
0,1503,"truthJudge","agree-key","Sharks dont attack swimmers.","Sharks","dont attack swimmers"
0,1124,"truthJudge","disagree-key","Leopards are juvenile.","Leopards","are juvenile"
0,1393,"truthJudge","agree-key","Mosquitos carry malaria.","Mosquitos","carry malaria"
0,1124,"truthJudge","agree-key","Cardinals are red.","Cardinals","are red"
0,1720,"truthJudge","agree-key","Tigers dont eat people.","Tigers","dont eat people"
0,1860,"truthJudge","disagree-key","Mosquitos attack swimmers.","Mosquitos","attack swimmers"
0,952,"truthJudge","disagree-key","Sharks have manes.","Sharks","have manes"
0,781,"truthJudge","disagree-key","Sharks lay eggs.","Sharks","lay eggs"
0,948,"truthJudge","agree-key","Lions have manes.","Lions","have manes"
0,1093,"truthJudge","agree-key","Ducks have wings.","Ducks","have wings"
0,1751,"truthJudge","disagree-key","Mosquitos dont carry malaria.","Mosquitos","dont carry malaria"
0,1072,"truthJudge","agree-key","Ticks carry Lyme disease.","Ticks","carry Lyme disease"
0,1611,"truthJudge","agree-key","Leopards have spots.","Leopards","have spots"
0,2488,"truthJudge","agree-key","Swans are full-grown.","Swans","are full-grown"
0,1047,"truthJudge","agree-key","Tigers eat people.","Tigers","eat people"
0,1507,"truthJudge","disagree-key","Lions lay eggs.","Lions","lay eggs"
0,1035,"truthJudge","agree-key","Peacocks have beautiful feathers.","Peacocks","have beautiful feathers"
1,2733,"truthJudge","disagree-key","Mosquitos carry malaria.","Mosquitos","carry malaria"
1,1483,"truthJudge","disagree-key","Lions are male.","Lions","are male"
1,1878,"truthJudge","disagree-key","Robins carry malaria.","Robins","carry malaria"
1,2393,"truthJudge","disagree-key","Lions have manes.","Lions","have manes"
1,1526,"truthJudge","agree-key","Robins lay eggs.","Robins","lay eggs"
1,1587,"truthJudge","disagree-key","Peacocks dont have beautiful feathers.","Peacocks","dont have beautiful feathers"
1,1213,"truthJudge","agree-key","Peacocks have beautiful feathers.","Peacocks","have beautiful feathers"
1,875,"truthJudge","disagree-key","Mosquitos dont carry malaria.","Mosquitos","dont carry malaria"
1,1292,"truthJudge","disagree-key","Sharks have manes.","Sharks","have manes"
1,1089,"truthJudge","disagree-key","Kangaroos have spots.","Kangaroos","have spots"
1,910,"truthJudge","disagree-key","Tigers have pouches.","Tigers","have pouches"
1,2599,"truthJudge","disagree-key","Swans are full-grown.","Swans","are full-grown"
1,3094,"truthJudge","disagree-key","Sharks dont attack swimmers.","Sharks","dont attack swimmers"
1,4367,"truthJudge","disagree-key","Tigers eat people.","Tigers","eat people"
1,1821,"truthJudge","disagree-key","Swans are white.","Swans","are white"
1,819,"truthJudge","agree-key","Kangaroos have pouches.","Kangaroos","have pouches"
1,1020,"truthJudge","disagree-key","Sharks lay eggs.","Sharks","lay eggs"
1,1434,"truthJudge","agree-key","Ticks carry Lyme disease.","Ticks","carry Lyme disease"
1,1536,"truthJudge","agree-key","Cardinals are red.","Cardinals","are red"
1,1086,"truthJudge","disagree-key","Leopards have wings.","Leopards","have wings"
1,826,"truthJudge","disagree-key","Sharks are white.","Sharks","are white"
1,1276,"truthJudge","disagree-key","Mosquitos attack swimmers.","Mosquitos","attack swimmers"
1,1040,"truthJudge","agree-key","Ducks have wings.","Ducks","have wings"
1,1079,"truthJudge","disagree-key","Leopards have spots.","Leopards","have spots"
1,3401,"truthJudge","agree-key","Sharks attack swimmers.","Sharks","attack swimmers"
1,913,"truthJudge","disagree-key","Lions lay eggs.","Lions","lay eggs"
1,1109,"truthJudge","disagree-key","Ticks dont carry Lyme disease.","Ticks","dont carry Lyme disease"
1,1984,"truthJudge","disagree-key","Tigers dont eat people.","Tigers","dont eat people"
1,991,"truthJudge","disagree-key","Robins are female.","Robins","are female"
1,1567,"truthJudge","disagree-key","Leopards are juvenile.","Leopards","are juvenile"
2,3192,"truthJudge","disagree-key","Swans are full-grown.","Swans","are full-grown"
2,1505,"truthJudge","agree-key","Leopards have spots.","Leopards","have spots"
2,2743,"truthJudge","disagree-key","Peacocks dont have beautiful feathers.","Peacocks","dont have beautiful feathers"
2,1382,"truthJudge","agree-key","Sharks attack swimmers.","Sharks","attack swimmers"
2,1079,"truthJudge","disagree-key","Kangaroos have spots.","Kangaroos","have spots"
2,1332,"truthJudge","agree-key","Mosquitos attack swimmers.","Mosquitos","attack swimmers"
2,1233,"truthJudge","agree-key","Ducks have wings.","Ducks","have wings"
2,1251,"truthJudge","disagree-key","Sharks dont attack swimmers.","Sharks","dont attack swimmers"
2,1304,"truthJudge","agree-key","Mosquitos carry malaria.","Mosquitos","carry malaria"
2,915,"truthJudge","disagree-key","Sharks lay eggs.","Sharks","lay eggs"
2,1557,"truthJudge","disagree-key","Leopards are juvenile.","Leopards","are juvenile"
2,875,"truthJudge","agree-key","Ticks carry Lyme disease.","Ticks","carry Lyme disease"
2,1341,"truthJudge","disagree-key","Mosquitos dont carry malaria.","Mosquitos","dont carry malaria"
2,1482,"truthJudge","disagree-key","Sharks have manes.","Sharks","have manes"
2,1095,"truthJudge","disagree-key","Lions lay eggs.","Lions","lay eggs"
2,911,"truthJudge","disagree-key","Leopards have wings.","Leopards","have wings"
2,2037,"truthJudge","agree-key","Robins are female.","Robins","are female"
2,1308,"truthJudge","disagree-key","Tigers have pouches.","Tigers","have pouches"
2,1227,"truthJudge","agree-key","Tigers eat people.","Tigers","eat people"
2,1483,"truthJudge","agree-key","Sharks are white.","Sharks","are white"
2,928,"truthJudge","agree-key","Cardinals are red.","Cardinals","are red"
2,1092,"truthJudge","agree-key","Peacocks have beautiful feathers.","Peacocks","have beautiful feathers"
2,1139,"truthJudge","agree-key","Kangaroos have pouches.","Kangaroos","have pouches"
2,948,"truthJudge","agree-key","Robins lay eggs.","Robins","lay eggs"
2,989,"truthJudge","disagree-key","Robins carry malaria.","Robins","carry malaria"
2,1003,"truthJudge","agree-key","Swans are white.","Swans","are white"
2,1088,"truthJudge","agree-key","Lions have manes.","Lions","have manes"
2,1552,"truthJudge","disagree-key","Tigers dont eat people.","Tigers","dont eat people"
2,1332,"truthJudge","disagree-key","Ticks dont carry Lyme disease.","Ticks","dont carry Lyme disease"
2,1522,"truthJudge","agree-key","Lions are male.","Lions","are male"
3,3244,"truthJudge","disagree-key","Leopards are juvenile.","Leopards","are juvenile"
3,1426,"truthJudge","agree-key","Mosquitos carry malaria.","Mosquitos","carry malaria"
3,1643,"truthJudge","disagree-key","Ticks dont carry Lyme disease.","Ticks","dont carry Lyme disease"
3,1203,"truthJudge","agree-key","Lions have manes.","Lions","have manes"
3,2457,"truthJudge","disagree-key","Tigers eat people.","Tigers","eat people"
3,1397,"truthJudge","disagree-key","Mosquitos dont carry malaria.","Mosquitos","dont carry malaria"
3,1779,"truthJudge","disagree-key","Sharks dont attack swimmers.","Sharks","dont attack swimmers"
3,1246,"truthJudge","agree-key","Leopards have spots.","Leopards","have spots"
3,930,"truthJudge","disagree-key","Sharks have manes.","Sharks","have manes"
3,1204,"truthJudge","agree-key","Robins lay eggs.","Robins","lay eggs"
3,1012,"truthJudge","disagree-key","Tigers have pouches.","Tigers","have pouches"
3,1725,"truthJudge","agree-key","Tigers dont eat people.","Tigers","dont eat people"
3,2106,"truthJudge","agree-key","Swans are full-grown.","Swans","are full-grown"
3,947,"truthJudge","agree-key","Ticks carry Lyme disease.","Ticks","carry Lyme disease"
3,1194,"truthJudge","agree-key","Peacocks have beautiful feathers.","Peacocks","have beautiful feathers"
3,1468,"truthJudge","disagree-key","Robins carry malaria.","Robins","carry malaria"
3,1123,"truthJudge","agree-key","Ducks have wings.","Ducks","have wings"
3,1107,"truthJudge","disagree-key","Kangaroos have spots.","Kangaroos","have spots"
3,1163,"truthJudge","disagree-key","Sharks are white.","Sharks","are white"
3,795,"truthJudge","agree-key","Cardinals are red.","Cardinals","are red"
3,1156,"truthJudge","agree-key","Kangaroos have pouches.","Kangaroos","have pouches"
3,2442,"truthJudge","agree-key","Robins are female.","Robins","are female"
3,947,"truthJudge","disagree-key","Sharks lay eggs.","Sharks","lay eggs"
3,2004,"truthJudge","agree-key","Lions are male.","Lions","are male"
3,882,"truthJudge","disagree-key","Leopards have wings.","Leopards","have wings"
3,1859,"truthJudge","agree-key","Sharks attack swimmers.","Sharks","attack swimmers"
3,1005,"truthJudge","agree-key","Swans are white.","Swans","are white"
3,714,"truthJudge","disagree-key","Lions lay eggs.","Lions","lay eggs"
3,1020,"truthJudge","disagree-key","Peacocks dont have beautiful feathers.","Peacocks","dont have beautiful feathers"
3,1027,"truthJudge","disagree-key","Mosquitos attack swimmers.","Mosquitos","attack swimmers"
4,3781,"truthJudge","disagree-key","Mosquitos attack swimmers.","Mosquitos","attack swimmers"
4,1678,"truthJudge","agree-key","Robins are female.","Robins","are female"
4,1581,"truthJudge","agree-key","Tigers dont eat people.","Tigers","dont eat people"
4,808,"truthJudge","agree-key","Robins lay eggs.","Robins","lay eggs"
4,1166,"truthJudge","agree-key","Cardinals are red.","Cardinals","are red"
4,3743,"truthJudge","agree-key","Swans are full-grown.","Swans","are full-grown"
4,3271,"truthJudge","disagree-key","Sharks attack swimmers.","Sharks","attack swimmers"
4,1287,"truthJudge","disagree-key","Kangaroos have spots.","Kangaroos","have spots"
4,4738,"truthJudge","agree-key","Kangaroos have pouches.","Kangaroos","have pouches"
4,7453,"truthJudge","agree-key","Lions have manes.","Lions","have manes"
4,2094,"truthJudge","disagree-key","Tigers have pouches.","Tigers","have pouches"
4,1102,"truthJudge","disagree-key","Robins carry malaria.","Robins","carry malaria"
4,1061,"truthJudge","disagree-key","Sharks have manes.","Sharks","have manes"
4,1032,"truthJudge","disagree-key","Tigers eat people.","Tigers","eat people"
4,1067,"truthJudge","agree-key","Mosquitos carry malaria.","Mosquitos","carry malaria"
4,1053,"truthJudge","agree-key","Lions are male.","Lions","are male"
4,3831,"truthJudge","disagree-key","Lions lay eggs.","Lions","lay eggs"
4,8295,"truthJudge","disagree-key","Peacocks dont have beautiful feathers.","Peacocks","dont have beautiful feathers"
4,4222,"truthJudge","agree-key","Sharks are white.","Sharks","are white"
4,1070,"truthJudge","agree-key","Ducks have wings.","Ducks","have wings"
4,3075,"truthJudge","disagree-key","Leopards have wings.","Leopards","have wings"
4,1928,"truthJudge","disagree-key","Ticks dont carry Lyme disease.","Ticks","dont carry Lyme disease"
4,20929,"truthJudge","agree-key","Leopards are juvenile.","Leopards","are juvenile"
4,1487,"truthJudge","agree-key","Leopards have spots.","Leopards","have spots"
4,758,"truthJudge","agree-key","Swans are white.","Swans","are white"
4,1462,"truthJudge","agree-key","Ticks carry Lyme disease.","Ticks","carry Lyme disease"
4,4734,"truthJudge","agree-key","Peacocks have beautiful feathers.","Peacocks","have beautiful feathers"
4,3668,"truthJudge","agree-key","Sharks dont attack swimmers.","Sharks","dont attack swimmers"
4,4362,"truthJudge","disagree-key","Mosquitos dont carry malaria.","Mosquitos","dont carry malaria"
4,4055,"truthJudge","disagree-key","Sharks lay eggs.","Sharks","lay eggs"
5,4694,"truthJudge","agree-key","Lions are male.","Lions","are male"
5,3626,"truthJudge","agree-key","Mosquitos attack swimmers.","Mosquitos","attack swimmers"
5,131,"truthJudge","agree-key","Peacocks dont have beautiful feathers.","Peacocks","dont have beautiful feathers"
5,1939,"truthJudge","agree-key","Kangaroos have pouches.","Kangaroos","have pouches"
5,1891,"truthJudge","disagree-key","Sharks attack swimmers.","Sharks","attack swimmers"
5,1251,"truthJudge","agree-key","Ducks have wings.","Ducks","have wings"
5,1835,"truthJudge","disagree-key","Ticks dont carry Lyme disease.","Ticks","dont carry Lyme disease"
5,1132,"truthJudge","agree-key","Lions have manes.","Lions","have manes"
5,1260,"truthJudge","agree-key","Robins lay eggs.","Robins","lay eggs"
5,2547,"truthJudge","disagree-key","Sharks are white.","Sharks","are white"
5,1020,"truthJudge","agree-key","Leopards have spots.","Leopards","have spots"
5,1251,"truthJudge","disagree-key","Sharks have manes.","Sharks","have manes"
5,4379,"truthJudge","agree-key","Sharks dont attack swimmers.","Sharks","dont attack swimmers"
5,1396,"truthJudge","agree-key","Mosquitos carry malaria.","Mosquitos","carry malaria"
5,1763,"truthJudge","disagree-key","Tigers have pouches.","Tigers","have pouches"
5,1819,"truthJudge","disagree-key","Robins carry malaria.","Robins","carry malaria"
5,3395,"truthJudge","agree-key","Tigers dont eat people.","Tigers","dont eat people"
5,1667,"truthJudge","agree-key","Robins are female.","Robins","are female"
5,1459,"truthJudge","disagree-key","Kangaroos have spots.","Kangaroos","have spots"
5,1532,"truthJudge","disagree-key","Leopards are juvenile.","Leopards","are juvenile"
5,2052,"truthJudge","agree-key","Swans are full-grown.","Swans","are full-grown"
5,1731,"truthJudge","disagree-key","Leopards have wings.","Leopards","have wings"
5,1699,"truthJudge","disagree-key","Mosquitos dont carry malaria.","Mosquitos","dont carry malaria"
5,1587,"truthJudge","disagree-key","Sharks lay eggs.","Sharks","lay eggs"
5,3411,"truthJudge","agree-key","Cardinals are red.","Cardinals","are red"
5,1236,"truthJudge","disagree-key","Tigers eat people.","Tigers","eat people"
5,1036,"truthJudge","agree-key","Swans are white.","Swans","are white"
5,1148,"truthJudge","disagree-key","Lions lay eggs.","Lions","lay eggs"
5,1892,"truthJudge","agree-key","Ticks carry Lyme disease.","Ticks","carry Lyme disease"
5,1052,"truthJudge","agree-key","Peacocks have beautiful feathers.","Peacocks","have beautiful feathers"
6,1974,"truthJudge","agree-key","Mosquitos carry malaria.","Mosquitos","carry malaria"
6,3663,"truthJudge","agree-key","Peacocks have beautiful feathers.","Peacocks","have beautiful feathers"
6,4250,"truthJudge","disagree-key","Sharks lay eggs.","Sharks","lay eggs"
6,1443,"truthJudge","agree-key","Ticks carry Lyme disease.","Ticks","carry Lyme disease"
6,1187,"truthJudge","agree-key","Ducks have wings.","Ducks","have wings"
6,1946,"truthJudge","disagree-key","Leopards have wings.","Leopards","have wings"
6,1298,"truthJudge","agree-key","Kangaroos have pouches.","Kangaroos","have pouches"
6,1275,"truthJudge","disagree-key","Ticks dont carry Lyme disease.","Ticks","dont carry Lyme disease"
6,4427,"truthJudge","agree-key","Tigers eat people.","Tigers","eat people"
6,1443,"truthJudge","agree-key","Robins lay eggs.","Robins","lay eggs"
6,1723,"truthJudge","disagree-key","Tigers dont eat people.","Tigers","dont eat people"
6,1458,"truthJudge","agree-key","Cardinals are red.","Cardinals","are red"
6,2002,"truthJudge","disagree-key","Sharks dont attack swimmers.","Sharks","dont attack swimmers"
6,1723,"truthJudge","agree-key","Leopards have spots.","Leopards","have spots"
6,1347,"truthJudge","agree-key","Sharks attack swimmers.","Sharks","attack swimmers"
6,5684,"truthJudge","agree-key","Sharks are white.","Sharks","are white"
6,1163,"truthJudge","disagree-key","Robins carry malaria.","Robins","carry malaria"
6,1291,"truthJudge","disagree-key","Lions lay eggs.","Lions","lay eggs"
6,1907,"truthJudge","disagree-key","Mosquitos dont carry malaria.","Mosquitos","dont carry malaria"
6,3339,"truthJudge","agree-key","Robins are female.","Robins","are female"
6,1859,"truthJudge","agree-key","Swans are white.","Swans","are white"
6,5442,"truthJudge","agree-key","Lions are male.","Lions","are male"
6,2059,"truthJudge","disagree-key","Tigers have pouches.","Tigers","have pouches"
6,1380,"truthJudge","disagree-key","Sharks have manes.","Sharks","have manes"
6,2931,"truthJudge","disagree-key","Peacocks dont have beautiful feathers.","Peacocks","dont have beautiful feathers"
6,2067,"truthJudge","agree-key","Swans are full-grown.","Swans","are full-grown"
6,994,"truthJudge","disagree-key","Leopards are juvenile.","Leopards","are juvenile"
6,1531,"truthJudge","disagree-key","Kangaroos have spots.","Kangaroos","have spots"
6,1348,"truthJudge","agree-key","Lions have manes.","Lions","have manes"
6,1162,"truthJudge","disagree-key","Mosquitos attack swimmers.","Mosquitos","attack swimmers"
7,2326,"truthJudge","disagree-key","Robins are female.","Robins","are female"
7,3091,"truthJudge","agree-key","Mosquitos carry malaria.","Mosquitos","carry malaria"
7,1534,"truthJudge","agree-key","Swans are full-grown.","Swans","are full-grown"
7,1259,"truthJudge","disagree-key","Tigers have pouches.","Tigers","have pouches"
7,1015,"truthJudge","agree-key","Leopards have spots.","Leopards","have spots"
7,961,"truthJudge","disagree-key","Lions lay eggs.","Lions","lay eggs"
7,2839,"truthJudge","disagree-key","Lions are male.","Lions","are male"
7,937,"truthJudge","disagree-key","Leopards have wings.","Leopards","have wings"
7,1160,"truthJudge","disagree-key","Sharks are white.","Sharks","are white"
7,1188,"truthJudge","disagree-key","Robins carry malaria.","Robins","carry malaria"
7,1125,"truthJudge","disagree-key","Mosquitos attack swimmers.","Mosquitos","attack swimmers"
7,1829,"truthJudge","disagree-key","Tigers dont eat people.","Tigers","dont eat people"
7,829,"truthJudge","disagree-key","Sharks lay eggs.","Sharks","lay eggs"
7,1244,"truthJudge","agree-key","Tigers eat people.","Tigers","eat people"
7,1707,"truthJudge","disagree-key","Ticks dont carry Lyme disease.","Ticks","dont carry Lyme disease"
7,1033,"truthJudge","agree-key","Lions have manes.","Lions","have manes"
7,1547,"truthJudge","disagree-key","Mosquitos dont carry malaria.","Mosquitos","dont carry malaria"
7,1156,"truthJudge","agree-key","Swans are white.","Swans","are white"
7,1913,"truthJudge","agree-key","Sharks attack swimmers.","Sharks","attack swimmers"
7,1422,"truthJudge","disagree-key","Peacocks dont have beautiful feathers.","Peacocks","dont have beautiful feathers"
7,1125,"truthJudge","disagree-key","Kangaroos have spots.","Kangaroos","have spots"
7,1030,"truthJudge","disagree-key","Sharks have manes.","Sharks","have manes"
7,1103,"truthJudge","agree-key","Robins lay eggs.","Robins","lay eggs"
7,1015,"truthJudge","agree-key","Ticks carry Lyme disease.","Ticks","carry Lyme disease"
7,888,"truthJudge","agree-key","Ducks have wings.","Ducks","have wings"
7,954,"truthJudge","disagree-key","Leopards are juvenile.","Leopards","are juvenile"
7,887,"truthJudge","agree-key","Kangaroos have pouches.","Kangaroos","have pouches"
7,1250,"truthJudge","disagree-key","Sharks dont attack swimmers.","Sharks","dont attack swimmers"
7,868,"truthJudge","agree-key","Cardinals are red.","Cardinals","are red"
7,984,"truthJudge","agree-key","Peacocks have beautiful feathers.","Peacocks","have beautiful feathers"
8,18499,"truthJudge","disagree-key","Swans are full-grown.","Swans","are full-grown"
8,4373,"truthJudge","agree-key","Kangaroos have pouches.","Kangaroos","have pouches"
8,1620,"truthJudge","disagree-key","Kangaroos have spots.","Kangaroos","have spots"
8,2626,"truthJudge","agree-key","Mosquitos attack swimmers.","Mosquitos","attack swimmers"
8,1375,"truthJudge","agree-key","Ticks carry Lyme disease.","Ticks","carry Lyme disease"
8,2043,"truthJudge","disagree-key","Peacocks dont have beautiful feathers.","Peacocks","dont have beautiful feathers"
8,6016,"truthJudge","agree-key","Lions are male.","Lions","are male"
8,1512,"truthJudge","disagree-key","Ticks dont carry Lyme disease.","Ticks","dont carry Lyme disease"
8,2579,"truthJudge","disagree-key","Robins carry malaria.","Robins","carry malaria"
8,1508,"truthJudge","agree-key","Cardinals are red.","Cardinals","are red"
8,1394,"truthJudge","disagree-key","Sharks are white.","Sharks","are white"
8,1291,"truthJudge","disagree-key","Mosquitos dont carry malaria.","Mosquitos","dont carry malaria"
8,1299,"truthJudge","disagree-key","Sharks have manes.","Sharks","have manes"
8,983,"truthJudge","disagree-key","Sharks lay eggs.","Sharks","lay eggs"
8,3583,"truthJudge","agree-key","Leopards have spots.","Leopards","have spots"
8,1404,"truthJudge","disagree-key","Sharks dont attack swimmers.","Sharks","dont attack swimmers"
8,1203,"truthJudge","agree-key","Robins lay eggs.","Robins","lay eggs"
8,1184,"truthJudge","agree-key","Mosquitos carry malaria.","Mosquitos","carry malaria"
8,1704,"truthJudge","agree-key","Lions have manes.","Lions","have manes"
8,956,"truthJudge","disagree-key","Lions lay eggs.","Lions","lay eggs"
8,1248,"truthJudge","agree-key","Peacocks have beautiful feathers.","Peacocks","have beautiful feathers"
8,1318,"truthJudge","agree-key","Tigers eat people.","Tigers","eat people"
8,895,"truthJudge","disagree-key","Tigers have pouches.","Tigers","have pouches"
8,1247,"truthJudge","agree-key","Ducks have wings.","Ducks","have wings"
8,915,"truthJudge","agree-key","Swans are white.","Swans","are white"
8,1213,"truthJudge","disagree-key","Tigers dont eat people.","Tigers","dont eat people"
8,1064,"truthJudge","disagree-key","Leopards have wings.","Leopards","have wings"
8,1175,"truthJudge","agree-key","Sharks attack swimmers.","Sharks","attack swimmers"
8,1924,"truthJudge","disagree-key","Robins are female.","Robins","are female"
8,2902,"truthJudge","disagree-key","Leopards are juvenile.","Leopards","are juvenile"
9,3038,"truthJudge","agree-key","Mosquitos carry malaria.","Mosquitos","carry malaria"
9,3738,"truthJudge","disagree-key","Mosquitos dont carry malaria.","Mosquitos","dont carry malaria"
9,2363,"truthJudge","agree-key","Ducks have wings.","Ducks","have wings"
9,3051,"truthJudge","agree-key","Robins are female.","Robins","are female"
9,2363,"truthJudge","agree-key","Leopards have spots.","Leopards","have spots"
9,5338,"truthJudge","disagree-key","Tigers dont eat people.","Tigers","dont eat people"
9,1852,"truthJudge","agree-key","Swans are white.","Swans","are white"
9,1459,"truthJudge","agree-key","Sharks attack swimmers.","Sharks","attack swimmers"
9,1570,"truthJudge","agree-key","Sharks dont attack swimmers.","Sharks","dont attack swimmers"
9,2100,"truthJudge","agree-key","Lions are male.","Lions","are male"
9,1155,"truthJudge","disagree-key","Tigers have pouches.","Tigers","have pouches"
9,20965,"truthJudge","agree-key","Robins lay eggs.","Robins","lay eggs"
9,2410,"truthJudge","disagree-key","Peacocks dont have beautiful feathers.","Peacocks","dont have beautiful feathers"
9,2203,"truthJudge","disagree-key","Robins carry malaria.","Robins","carry malaria"
9,1346,"truthJudge","disagree-key","Kangaroos have spots.","Kangaroos","have spots"
9,1588,"truthJudge","disagree-key","Sharks lay eggs.","Sharks","lay eggs"
9,1451,"truthJudge","disagree-key","Sharks have manes.","Sharks","have manes"
9,1187,"truthJudge","disagree-key","Lions lay eggs.","Lions","lay eggs"
9,1787,"truthJudge","agree-key","Lions have manes.","Lions","have manes"
9,1027,"truthJudge","agree-key","Kangaroos have pouches.","Kangaroos","have pouches"
9,2419,"truthJudge","agree-key","Sharks are white.","Sharks","are white"
9,963,"truthJudge","agree-key","Peacocks have beautiful feathers.","Peacocks","have beautiful feathers"
9,1203,"truthJudge","agree-key","Cardinals are red.","Cardinals","are red"
9,1282,"truthJudge","agree-key","Ticks carry Lyme disease.","Ticks","carry Lyme disease"
9,2194,"truthJudge","agree-key","Ticks dont carry Lyme disease.","Ticks","dont carry Lyme disease"
9,1812,"truthJudge","agree-key","Swans are full-grown.","Swans","are full-grown"
9,1652,"truthJudge","disagree-key","Leopards have wings.","Leopards","have wings"
9,859,"truthJudge","agree-key","Tigers eat people.","Tigers","eat people"
9,5003,"truthJudge","disagree-key","Leopards are juvenile.","Leopards","are juvenile"
9,3059,"truthJudge","disagree-key","Mosquitos attack swimmers.","Mosquitos","attack swimmers"
10,5600,"truthJudge","agree-key","Lions are male.","Lions","are male"
10,2800,"truthJudge","agree-key","Kangaroos have pouches.","Kangaroos","have pouches"
10,1547,"truthJudge","agree-key","Cardinals are red.","Cardinals","are red"
10,2639,"truthJudge","disagree-key","Mosquitos dont carry malaria.","Mosquitos","dont carry malaria"
10,3416,"truthJudge","agree-key","Mosquitos attack swimmers.","Mosquitos","attack swimmers"
10,1916,"truthJudge","disagree-key","Peacocks dont have beautiful feathers.","Peacocks","dont have beautiful feathers"
10,1323,"truthJudge","disagree-key","Ticks dont carry Lyme disease.","Ticks","dont carry Lyme disease"
10,3105,"truthJudge","agree-key","Sharks lay eggs.","Sharks","lay eggs"
10,2638,"truthJudge","disagree-key","Tigers dont eat people.","Tigers","dont eat people"
10,1636,"truthJudge","agree-key","Ducks have wings.","Ducks","have wings"
10,1244,"truthJudge","agree-key","Robins lay eggs.","Robins","lay eggs"
10,3196,"truthJudge","agree-key","Sharks attack swimmers.","Sharks","attack swimmers"
10,1315,"truthJudge","agree-key","Leopards have spots.","Leopards","have spots"
10,1626,"truthJudge","disagree-key","Leopards are juvenile.","Leopards","are juvenile"
10,1933,"truthJudge","agree-key","Tigers eat people.","Tigers","eat people"
10,1028,"truthJudge","agree-key","Swans are white.","Swans","are white"
10,1395,"truthJudge","disagree-key","Robins are female.","Robins","are female"
10,1705,"truthJudge","agree-key","Ticks carry Lyme disease.","Ticks","carry Lyme disease"
10,6614,"truthJudge","disagree-key","Lions lay eggs.","Lions","lay eggs"
10,2770,"truthJudge","agree-key","Lions have manes.","Lions","have manes"
10,1115,"truthJudge","agree-key","Mosquitos carry malaria.","Mosquitos","carry malaria"
10,1908,"truthJudge","disagree-key","Robins carry malaria.","Robins","carry malaria"
10,1573,"truthJudge","agree-key","Swans are full-grown.","Swans","are full-grown"
10,2283,"truthJudge","agree-key","Sharks are white.","Sharks","are white"
10,1667,"truthJudge","disagree-key","Tigers have pouches.","Tigers","have pouches"
10,1716,"truthJudge","agree-key","Peacocks have beautiful feathers.","Peacocks","have beautiful feathers"
10,1795,"truthJudge","disagree-key","Sharks have manes.","Sharks","have manes"
10,1907,"truthJudge","disagree-key","Sharks dont attack swimmers.","Sharks","dont attack swimmers"
10,2466,"truthJudge","disagree-key","Kangaroos have spots.","Kangaroos","have spots"
10,1245,"truthJudge","disagree-key","Leopards have wings.","Leopards","have wings"
11,2789,"truthJudge","disagree-key","Ticks dont carry Lyme disease.","Ticks","dont carry Lyme disease"
11,3440,"truthJudge","agree-key","Lions are male.","Lions","are male"
11,1926,"truthJudge","agree-key","Robins lay eggs.","Robins","lay eggs"
11,2637,"truthJudge","disagree-key","Swans are white.","Swans","are white"
11,3411,"truthJudge","agree-key","Kangaroos have spots.","Kangaroos","have spots"
11,2179,"truthJudge","agree-key","Sharks have manes.","Sharks","have manes"
11,1298,"truthJudge","agree-key","Leopards have spots.","Leopards","have spots"
11,1335,"truthJudge","agree-key","Kangaroos have pouches.","Kangaroos","have pouches"
11,1967,"truthJudge","disagree-key","Mosquitos dont carry malaria.","Mosquitos","dont carry malaria"
11,1862,"truthJudge","agree-key","Cardinals are red.","Cardinals","are red"
11,1097,"truthJudge","agree-key","Ducks have wings.","Ducks","have wings"
11,1900,"truthJudge","agree-key","Robins carry malaria.","Robins","carry malaria"
11,1531,"truthJudge","agree-key","Sharks are white.","Sharks","are white"
11,1777,"truthJudge","disagree-key","Tigers have pouches.","Tigers","have pouches"
11,2551,"truthJudge","disagree-key","Mosquitos attack swimmers.","Mosquitos","attack swimmers"
11,2763,"truthJudge","agree-key","Peacocks have beautiful feathers.","Peacocks","have beautiful feathers"
11,1576,"truthJudge","disagree-key","Leopards have wings.","Leopards","have wings"
11,3656,"truthJudge","disagree-key","Swans are full-grown.","Swans","are full-grown"
11,1524,"truthJudge","agree-key","Ticks carry Lyme disease.","Ticks","carry Lyme disease"
11,1338,"truthJudge","agree-key","Mosquitos carry malaria.","Mosquitos","carry malaria"
11,3087,"truthJudge","disagree-key","Tigers eat people.","Tigers","eat people"
11,1435,"truthJudge","agree-key","Tigers dont eat people.","Tigers","dont eat people"
11,1562,"truthJudge","disagree-key","Sharks lay eggs.","Sharks","lay eggs"
11,3156,"truthJudge","disagree-key","Peacocks dont have beautiful feathers.","Peacocks","dont have beautiful feathers"
11,2242,"truthJudge","disagree-key","Leopards are juvenile.","Leopards","are juvenile"
11,1796,"truthJudge","disagree-key","Lions lay eggs.","Lions","lay eggs"
11,1688,"truthJudge","agree-key","Lions have manes.","Lions","have manes"
11,4190,"truthJudge","disagree-key","Robins are female.","Robins","are female"
11,1951,"truthJudge","disagree-key","Sharks dont attack swimmers.","Sharks","dont attack swimmers"
11,1324,"truthJudge","agree-key","Sharks attack swimmers.","Sharks","attack swimmers"
12,5588,"truthJudge","disagree-key","Sharks dont attack swimmers.","Sharks","dont attack swimmers"
12,6529,"truthJudge","disagree-key","Lions are male.","Lions","are male"
12,2641,"truthJudge","disagree-key","Tigers dont eat people.","Tigers","dont eat people"
12,2397,"truthJudge","agree-key","Mosquitos carry malaria.","Mosquitos","carry malaria"
12,1205,"truthJudge","agree-key","Ducks have wings.","Ducks","have wings"
12,1700,"truthJudge","disagree-key","Tigers have pouches.","Tigers","have pouches"
12,2637,"truthJudge","agree-key","Mosquitos attack swimmers.","Mosquitos","attack swimmers"
12,2505,"truthJudge","disagree-key","Ticks dont carry Lyme disease.","Ticks","dont carry Lyme disease"
12,2106,"truthJudge","agree-key","Swans are full-grown.","Swans","are full-grown"
12,2505,"truthJudge","disagree-key","Mosquitos dont carry malaria.","Mosquitos","dont carry malaria"
12,2658,"truthJudge","agree-key","Kangaroos have spots.","Kangaroos","have spots"
12,1026,"truthJudge","agree-key","Robins lay eggs.","Robins","lay eggs"
12,2841,"truthJudge","disagree-key","Sharks are white.","Sharks","are white"
12,1732,"truthJudge","disagree-key","Sharks lay eggs.","Sharks","lay eggs"
12,2363,"truthJudge","disagree-key","Peacocks dont have beautiful feathers.","Peacocks","dont have beautiful feathers"
12,1721,"truthJudge","disagree-key","Robins carry malaria.","Robins","carry malaria"
12,1361,"truthJudge","agree-key","Kangaroos have pouches.","Kangaroos","have pouches"
12,1371,"truthJudge","disagree-key","Lions lay eggs.","Lions","lay eggs"
12,1309,"truthJudge","agree-key","Peacocks have beautiful feathers.","Peacocks","have beautiful feathers"
12,1658,"truthJudge","agree-key","Swans are white.","Swans","are white"
12,1499,"truthJudge","agree-key","Tigers eat people.","Tigers","eat people"
12,1402,"truthJudge","disagree-key","Leopards have wings.","Leopards","have wings"
12,3081,"truthJudge","disagree-key","Leopards are juvenile.","Leopards","are juvenile"
12,1427,"truthJudge","disagree-key","Sharks have manes.","Sharks","have manes"
12,1275,"truthJudge","disagree-key","Leopards have spots.","Leopards","have spots"
12,2045,"truthJudge","agree-key","Lions have manes.","Lions","have manes"
12,1510,"truthJudge","agree-key","Ticks carry Lyme disease.","Ticks","carry Lyme disease"
12,2611,"truthJudge","agree-key","Robins are female.","Robins","are female"
12,1273,"truthJudge","agree-key","Sharks attack swimmers.","Sharks","attack swimmers"
12,1425,"truthJudge","agree-key","Cardinals are red.","Cardinals","are red"
13,5523,"truthJudge","disagree-key","Sharks dont attack swimmers.","Sharks","dont attack swimmers"
13,4274,"truthJudge","agree-key","Mosquitos attack swimmers.","Mosquitos","attack swimmers"
13,3587,"truthJudge","agree-key","Sharks are white.","Sharks","are white"
13,2354,"truthJudge","disagree-key","Tigers have pouches.","Tigers","have pouches"
13,14123,"truthJudge","disagree-key","Leopards are juvenile.","Leopards","are juvenile"
13,2605,"truthJudge","disagree-key","Peacocks dont have beautiful feathers.","Peacocks","dont have beautiful feathers"
13,2471,"truthJudge","agree-key","Lions have manes.","Lions","have manes"
13,1472,"truthJudge","disagree-key","Lions lay eggs.","Lions","lay eggs"
13,2640,"truthJudge","agree-key","Tigers eat people.","Tigers","eat people"
13,2214,"truthJudge","disagree-key","Sharks have manes.","Sharks","have manes"
13,4266,"truthJudge","disagree-key","Robins are female.","Robins","are female"
13,2572,"truthJudge","agree-key","Peacocks have beautiful feathers.","Peacocks","have beautiful feathers"
13,5912,"truthJudge","agree-key","Swans are full-grown.","Swans","are full-grown"
13,2162,"truthJudge","agree-key","Cardinals are red.","Cardinals","are red"
13,3071,"truthJudge","agree-key","Kangaroos have pouches.","Kangaroos","have pouches"
13,2690,"truthJudge","disagree-key","Kangaroos have spots.","Kangaroos","have spots"
13,1874,"truthJudge","disagree-key","Tigers dont eat people.","Tigers","dont eat people"
13,2572,"truthJudge","agree-key","Leopards have spots.","Leopards","have spots"
13,2391,"truthJudge","disagree-key","Robins carry malaria.","Robins","carry malaria"
13,1669,"truthJudge","disagree-key","Sharks lay eggs.","Sharks","lay eggs"
13,4850,"truthJudge","agree-key","Robins lay eggs.","Robins","lay eggs"
13,2187,"truthJudge","agree-key","Ticks carry Lyme disease.","Ticks","carry Lyme disease"
13,1624,"truthJudge","disagree-key","Leopards have wings.","Leopards","have wings"
13,2307,"truthJudge","disagree-key","Lions are male.","Lions","are male"
13,1845,"truthJudge","agree-key","Sharks attack swimmers.","Sharks","attack swimmers"
13,2151,"truthJudge","agree-key","Swans are white.","Swans","are white"
13,2145,"truthJudge","agree-key","Mosquitos carry malaria.","Mosquitos","carry malaria"
13,1765,"truthJudge","disagree-key","Mosquitos dont carry malaria.","Mosquitos","dont carry malaria"
13,1790,"truthJudge","disagree-key","Ticks dont carry Lyme disease.","Ticks","dont carry Lyme disease"
13,2720,"truthJudge","agree-key","Ducks have wings.","Ducks","have wings"
14,2120,"truthJudge","agree-key","Swans are white.","Swans","are white"
14,2710,"truthJudge","disagree-key","Mosquitos dont carry malaria.","Mosquitos","dont carry malaria"
14,1497,"truthJudge","agree-key","Lions have manes.","Lions","have manes"
14,2414,"truthJudge","disagree-key","Mosquitos attack swimmers.","Mosquitos","attack swimmers"
14,1012,"truthJudge","agree-key","Peacocks have beautiful feathers.","Peacocks","have beautiful feathers"
14,2941,"truthJudge","disagree-key","Robins are female.","Robins","are female"
14,1128,"truthJudge","disagree-key","Leopards are juvenile.","Leopards","are juvenile"
14,1098,"truthJudge","agree-key","Ticks carry Lyme disease.","Ticks","carry Lyme disease"
14,884,"truthJudge","agree-key","Leopards have spots.","Leopards","have spots"
14,1079,"truthJudge","disagree-key","Sharks have manes.","Sharks","have manes"
14,925,"truthJudge","disagree-key","Kangaroos have spots.","Kangaroos","have spots"
14,1617,"truthJudge","disagree-key","Peacocks dont have beautiful feathers.","Peacocks","dont have beautiful feathers"
14,1626,"truthJudge","agree-key","Ducks have wings.","Ducks","have wings"
14,814,"truthJudge","agree-key","Tigers eat people.","Tigers","eat people"
14,1144,"truthJudge","agree-key","Mosquitos carry malaria.","Mosquitos","carry malaria"
14,753,"truthJudge","agree-key","Sharks attack swimmers.","Sharks","attack swimmers"
14,1097,"truthJudge","disagree-key","Lions are male.","Lions","are male"
14,1013,"truthJudge","disagree-key","Swans are full-grown.","Swans","are full-grown"
14,988,"truthJudge","disagree-key","Tigers have pouches.","Tigers","have pouches"
14,2040,"truthJudge","disagree-key","Tigers dont eat people.","Tigers","dont eat people"
14,862,"truthJudge","agree-key","Cardinals are red.","Cardinals","are red"
14,740,"truthJudge","disagree-key","Sharks are white.","Sharks","are white"
14,845,"truthJudge","disagree-key","Leopards have wings.","Leopards","have wings"
14,891,"truthJudge","disagree-key","Ticks dont carry Lyme disease.","Ticks","dont carry Lyme disease"
14,724,"truthJudge","disagree-key","Lions lay eggs.","Lions","lay eggs"
14,938,"truthJudge","disagree-key","Robins carry malaria.","Robins","carry malaria"
14,679,"truthJudge","disagree-key","Sharks dont attack swimmers.","Sharks","dont attack swimmers"
14,863,"truthJudge","agree-key","Kangaroos have pouches.","Kangaroos","have pouches"
14,678,"truthJudge","disagree-key","Sharks lay eggs.","Sharks","lay eggs"
14,877,"truthJudge","agree-key","Robins lay eggs.","Robins","lay eggs"
15,2566,"truthJudge","agree-key","Robins carry malaria.","Robins","carry malaria"
15,3490,"truthJudge","agree-key","Ticks dont carry Lyme disease.","Ticks","dont carry Lyme disease"
15,1042,"truthJudge","agree-key","Swans are white.","Swans","are white"
15,1154,"truthJudge","agree-key","Cardinals are red.","Cardinals","are red"
15,1052,"truthJudge","disagree-key","Lions lay eggs.","Lions","lay eggs"
15,1516,"truthJudge","disagree-key","Sharks are white.","Sharks","are white"
15,1184,"truthJudge","agree-key","Kangaroos have pouches.","Kangaroos","have pouches"
15,1993,"truthJudge","agree-key","Sharks attack swimmers.","Sharks","attack swimmers"
15,2069,"truthJudge","disagree-key","Swans are full-grown.","Swans","are full-grown"
15,1997,"truthJudge","disagree-key","Mosquitos dont carry malaria.","Mosquitos","dont carry malaria"
15,1178,"truthJudge","disagree-key","Leopards have wings.","Leopards","have wings"
15,1612,"truthJudge","agree-key","Robins are female.","Robins","are female"
15,1384,"truthJudge","agree-key","Peacocks have beautiful feathers.","Peacocks","have beautiful feathers"
15,1405,"truthJudge","disagree-key","Peacocks dont have beautiful feathers.","Peacocks","dont have beautiful feathers"
15,1152,"truthJudge","agree-key","Mosquitos carry malaria.","Mosquitos","carry malaria"
15,1036,"truthJudge","disagree-key","Tigers have pouches.","Tigers","have pouches"
15,1692,"truthJudge","agree-key","Ducks have wings.","Ducks","have wings"
15,1210,"truthJudge","disagree-key","Mosquitos attack swimmers.","Mosquitos","attack swimmers"
15,1458,"truthJudge","agree-key","Lions are male.","Lions","are male"
15,992,"truthJudge","agree-key","Leopards have spots.","Leopards","have spots"
15,1235,"truthJudge","agree-key","Lions have manes.","Lions","have manes"
15,1421,"truthJudge","disagree-key","Ticks carry Lyme disease.","Ticks","carry Lyme disease"
15,929,"truthJudge","disagree-key","Leopards are juvenile.","Leopards","are juvenile"
15,1036,"truthJudge","agree-key","Robins lay eggs.","Robins","lay eggs"
15,1222,"truthJudge","disagree-key","Kangaroos have spots.","Kangaroos","have spots"
15,1467,"truthJudge","disagree-key","Tigers dont eat people.","Tigers","dont eat people"
15,1071,"truthJudge","disagree-key","Sharks lay eggs.","Sharks","lay eggs"
15,1137,"truthJudge","disagree-key","Sharks have manes.","Sharks","have manes"
15,1362,"truthJudge","agree-key","Tigers eat people.","Tigers","eat people"
15,1287,"truthJudge","disagree-key","Sharks dont attack swimmers.","Sharks","dont attack swimmers"
16,2997,"truthJudge","disagree-key","Sharks have manes.","Sharks","have manes"
16,1221,"truthJudge","disagree-key","Lions lay eggs.","Lions","lay eggs"
16,1308,"truthJudge","agree-key","Ducks have wings.","Ducks","have wings"
16,2398,"truthJudge","agree-key","Mosquitos attack swimmers.","Mosquitos","attack swimmers"
16,2039,"truthJudge","disagree-key","Tigers dont eat people.","Tigers","dont eat people"
16,1227,"truthJudge","agree-key","Ticks carry Lyme disease.","Ticks","carry Lyme disease"
16,1015,"truthJudge","disagree-key","Ticks dont carry Lyme disease.","Ticks","dont carry Lyme disease"
16,1083,"truthJudge","disagree-key","Leopards have wings.","Leopards","have wings"
16,861,"truthJudge","agree-key","Leopards have spots.","Leopards","have spots"
16,1084,"truthJudge","agree-key","Robins lay eggs.","Robins","lay eggs"
16,1565,"truthJudge","disagree-key","Robins are female.","Robins","are female"
16,1332,"truthJudge","agree-key","Mosquitos carry malaria.","Mosquitos","carry malaria"
16,1926,"truthJudge","disagree-key","Peacocks dont have beautiful feathers.","Peacocks","dont have beautiful feathers"
16,1135,"truthJudge","disagree-key","Kangaroos have spots.","Kangaroos","have spots"
16,998,"truthJudge","disagree-key","Sharks lay eggs.","Sharks","lay eggs"
16,1227,"truthJudge","agree-key","Lions have manes.","Lions","have manes"
16,3068,"truthJudge","disagree-key","Leopards are juvenile.","Leopards","are juvenile"
16,5703,"truthJudge","agree-key","Kangaroos have pouches.","Kangaroos","have pouches"
16,3097,"truthJudge","disagree-key","Sharks are white.","Sharks","are white"
16,1963,"truthJudge","agree-key","Swans are full-grown.","Swans","are full-grown"
16,1070,"truthJudge","disagree-key","Tigers have pouches.","Tigers","have pouches"
16,1692,"truthJudge","agree-key","Sharks attack swimmers.","Sharks","attack swimmers"
16,2585,"truthJudge","agree-key","Peacocks have beautiful feathers.","Peacocks","have beautiful feathers"
16,1878,"truthJudge","agree-key","Lions are male.","Lions","are male"
16,1446,"truthJudge","agree-key","Cardinals are red.","Cardinals","are red"
16,1111,"truthJudge","disagree-key","Mosquitos dont carry malaria.","Mosquitos","dont carry malaria"
16,1629,"truthJudge","agree-key","Swans are white.","Swans","are white"
16,4821,"truthJudge","disagree-key","Robins carry malaria.","Robins","carry malaria"
16,3084,"truthJudge","disagree-key","Tigers eat people.","Tigers","eat people"
16,1220,"truthJudge","disagree-key","Sharks dont attack swimmers.","Sharks","dont attack swimmers"
17,3377,"truthJudge","disagree-key","Sharks are white.","Sharks","are white"
17,1673,"truthJudge","disagree-key","Sharks have manes.","Sharks","have manes"
17,1609,"truthJudge","agree-key","Peacocks have beautiful feathers.","Peacocks","have beautiful feathers"
17,1179,"truthJudge","disagree-key","Lions lay eggs.","Lions","lay eggs"
17,1767,"truthJudge","disagree-key","Peacocks dont have beautiful feathers.","Peacocks","dont have beautiful feathers"
17,1306,"truthJudge","disagree-key","Tigers have pouches.","Tigers","have pouches"
17,1285,"truthJudge","agree-key","Mosquitos carry malaria.","Mosquitos","carry malaria"
17,1730,"truthJudge","agree-key","Sharks dont attack swimmers.","Sharks","dont attack swimmers"
17,1628,"truthJudge","disagree-key","Kangaroos have pouches.","Kangaroos","have pouches"
17,1515,"truthJudge","agree-key","Robins lay eggs.","Robins","lay eggs"
17,1875,"truthJudge","disagree-key","Tigers dont eat people.","Tigers","dont eat people"
17,1544,"truthJudge","agree-key","Tigers eat people.","Tigers","eat people"
17,1271,"truthJudge","agree-key","Leopards have spots.","Leopards","have spots"
17,1564,"truthJudge","disagree-key","Robins are female.","Robins","are female"
17,1443,"truthJudge","disagree-key","Robins carry malaria.","Robins","carry malaria"
17,1785,"truthJudge","disagree-key","Sharks attack swimmers.","Sharks","attack swimmers"
17,1123,"truthJudge","agree-key","Cardinals are red.","Cardinals","are red"
17,1827,"truthJudge","disagree-key","Ticks dont carry Lyme disease.","Ticks","dont carry Lyme disease"
17,1155,"truthJudge","agree-key","Ducks have wings.","Ducks","have wings"
17,1147,"truthJudge","disagree-key","Sharks lay eggs.","Sharks","lay eggs"
17,1466,"truthJudge","agree-key","Ticks carry Lyme disease.","Ticks","carry Lyme disease"
17,1621,"truthJudge","disagree-key","Leopards are juvenile.","Leopards","are juvenile"
17,1172,"truthJudge","agree-key","Lions have manes.","Lions","have manes"
17,1203,"truthJudge","disagree-key","Leopards have wings.","Leopards","have wings"
17,2472,"truthJudge","agree-key","Mosquitos attack swimmers.","Mosquitos","attack swimmers"
17,2551,"truthJudge","agree-key","Swans are full-grown.","Swans","are full-grown"
17,1747,"truthJudge","disagree-key","Kangaroos have spots.","Kangaroos","have spots"
17,1947,"truthJudge","disagree-key","Lions are male.","Lions","are male"
17,1224,"truthJudge","disagree-key","Mosquitos dont carry malaria.","Mosquitos","dont carry malaria"
17,2139,"truthJudge","agree-key","Swans are white.","Swans","are white"
18,2792,"truthJudge","agree-key","Mosquitos carry malaria.","Mosquitos","carry malaria"
18,1595,"truthJudge","agree-key","Swans are white.","Swans","are white"
18,1546,"truthJudge","agree-key","Sharks attack swimmers.","Sharks","attack swimmers"
18,1067,"truthJudge","disagree-key","Lions lay eggs.","Lions","lay eggs"
18,1779,"truthJudge","agree-key","Swans are full-grown.","Swans","are full-grown"
18,1411,"truthJudge","agree-key","Leopards have spots.","Leopards","have spots"
18,1203,"truthJudge","disagree-key","Leopards have wings.","Leopards","have wings"
18,1835,"truthJudge","agree-key","Ducks have wings.","Ducks","have wings"
18,1467,"truthJudge","agree-key","Kangaroos have pouches.","Kangaroos","have pouches"
18,2227,"truthJudge","agree-key","Mosquitos dont carry malaria.","Mosquitos","dont carry malaria"
18,2539,"truthJudge","disagree-key","Ticks dont carry Lyme disease.","Ticks","dont carry Lyme disease"
18,1747,"truthJudge","agree-key","Peacocks have beautiful feathers.","Peacocks","have beautiful feathers"
18,1131,"truthJudge","disagree-key","Tigers have pouches.","Tigers","have pouches"
18,2668,"truthJudge","disagree-key","Sharks dont attack swimmers.","Sharks","dont attack swimmers"
18,1716,"truthJudge","disagree-key","Leopards are juvenile.","Leopards","are juvenile"
18,1212,"truthJudge","disagree-key","Kangaroos have spots.","Kangaroos","have spots"
18,2547,"truthJudge","agree-key","Sharks are white.","Sharks","are white"
18,2171,"truthJudge","disagree-key","Mosquitos attack swimmers.","Mosquitos","attack swimmers"
18,1356,"truthJudge","agree-key","Robins lay eggs.","Robins","lay eggs"
18,1515,"truthJudge","disagree-key","Peacocks dont have beautiful feathers.","Peacocks","dont have beautiful feathers"
18,1307,"truthJudge","disagree-key","Sharks have manes.","Sharks","have manes"
18,1211,"truthJudge","disagree-key","Tigers dont eat people.","Tigers","dont eat people"
18,1163,"truthJudge","disagree-key","Sharks lay eggs.","Sharks","lay eggs"
18,1051,"truthJudge","agree-key","Ticks carry Lyme disease.","Ticks","carry Lyme disease"
18,3019,"truthJudge","agree-key","Tigers eat people.","Tigers","eat people"
18,1259,"truthJudge","agree-key","Cardinals are red.","Cardinals","are red"
18,860,"truthJudge","agree-key","Lions are male.","Lions","are male"
18,1524,"truthJudge","agree-key","Robins are female.","Robins","are female"
18,1348,"truthJudge","disagree-key","Robins carry malaria.","Robins","carry malaria"
18,1084,"truthJudge","agree-key","Lions have manes.","Lions","have manes"
19,2918,"truthJudge","agree-key","Leopards have spots.","Leopards","have spots"
19,1148,"truthJudge","agree-key","Sharks attack swimmers.","Sharks","attack swimmers"
19,11944,"truthJudge","agree-key","Tigers eat people.","Tigers","eat people"
19,2586,"truthJudge","disagree-key","Sharks have manes.","Sharks","have manes"
19,2321,"truthJudge","agree-key","Lions have manes.","Lions","have manes"
19,2412,"truthJudge","agree-key","Ducks have wings.","Ducks","have wings"
19,1368,"truthJudge","disagree-key","Tigers dont eat people.","Tigers","dont eat people"
19,4334,"truthJudge","agree-key","Lions are male.","Lions","are male"
19,1320,"truthJudge","agree-key","Cardinals are red.","Cardinals","are red"
19,1951,"truthJudge","agree-key","Peacocks have beautiful feathers.","Peacocks","have beautiful feathers"
19,13915,"truthJudge","disagree-key","Sharks lay eggs.","Sharks","lay eggs"
19,1434,"truthJudge","disagree-key","Lions lay eggs.","Lions","lay eggs"
19,6153,"truthJudge","disagree-key","Leopards are juvenile.","Leopards","are juvenile"
19,2074,"truthJudge","disagree-key","Tigers have pouches.","Tigers","have pouches"
19,3047,"truthJudge","agree-key","Ticks carry Lyme disease.","Ticks","carry Lyme disease"
19,5345,"truthJudge","agree-key","Swans are full-grown.","Swans","are full-grown"
19,1764,"truthJudge","agree-key","Robins lay eggs.","Robins","lay eggs"
19,1354,"truthJudge","agree-key","Mosquitos carry malaria.","Mosquitos","carry malaria"
19,3274,"truthJudge","agree-key","Mosquitos attack swimmers.","Mosquitos","attack swimmers"
19,3238,"truthJudge","disagree-key","Sharks dont attack swimmers.","Sharks","dont attack swimmers"
19,5654,"truthJudge","disagree-key","Robins are female.","Robins","are female"
19,1838,"truthJudge","disagree-key","Kangaroos have spots.","Kangaroos","have spots"
19,1898,"truthJudge","disagree-key","Peacocks dont have beautiful feathers.","Peacocks","dont have beautiful feathers"
19,1728,"truthJudge","agree-key","Swans are white.","Swans","are white"
19,2614,"truthJudge","disagree-key","Mosquitos dont carry malaria.","Mosquitos","dont carry malaria"
19,2877,"truthJudge","disagree-key","Sharks are white.","Sharks","are white"
19,1671,"truthJudge","disagree-key","Leopards have wings.","Leopards","have wings"
19,2570,"truthJudge","disagree-key","Robins carry malaria.","Robins","carry malaria"
19,1635,"truthJudge","agree-key","Kangaroos have pouches.","Kangaroos","have pouches"
19,1882,"truthJudge","disagree-key","Ticks dont carry Lyme disease.","Ticks","dont carry Lyme disease"
20,3060,"truthJudge","agree-key","Tigers dont eat people.","Tigers","dont eat people"
20,4064,"truthJudge","agree-key","Ticks dont carry Lyme disease.","Ticks","dont carry Lyme disease"
20,2274,"truthJudge","disagree-key","Sharks have manes.","Sharks","have manes"
20,1279,"truthJudge","disagree-key","Sharks attack swimmers.","Sharks","attack swimmers"
20,1452,"truthJudge","disagree-key","Lions are male.","Lions","are male"
20,1173,"truthJudge","disagree-key","Robins carry malaria.","Robins","carry malaria"
20,948,"truthJudge","agree-key","Kangaroos have pouches.","Kangaroos","have pouches"
20,798,"truthJudge","disagree-key","Lions lay eggs.","Lions","lay eggs"
20,2236,"truthJudge","agree-key","Sharks dont attack swimmers.","Sharks","dont attack swimmers"
20,796,"truthJudge","disagree-key","Lions have manes.","Lions","have manes"
20,2424,"truthJudge","disagree-key","Cardinals are red.","Cardinals","are red"
20,1239,"truthJudge","agree-key","Swans are full-grown.","Swans","are full-grown"
20,860,"truthJudge","disagree-key","Leopards have wings.","Leopards","have wings"
20,891,"truthJudge","agree-key","Peacocks have beautiful feathers.","Peacocks","have beautiful feathers"
20,910,"truthJudge","disagree-key","Sharks lay eggs.","Sharks","lay eggs"
20,2982,"truthJudge","disagree-key","Mosquitos attack swimmers.","Mosquitos","attack swimmers"
20,1051,"truthJudge","agree-key","Mosquitos carry malaria.","Mosquitos","carry malaria"
20,938,"truthJudge","agree-key","Swans are white.","Swans","are white"
20,1064,"truthJudge","agree-key","Leopards have spots.","Leopards","have spots"
20,2175,"truthJudge","disagree-key","Robins are female.","Robins","are female"
20,2067,"truthJudge","agree-key","Robins lay eggs.","Robins","lay eggs"
20,1526,"truthJudge","disagree-key","Mosquitos dont carry malaria.","Mosquitos","dont carry malaria"
20,1234,"truthJudge","disagree-key","Peacocks dont have beautiful feathers.","Peacocks","dont have beautiful feathers"
20,1831,"truthJudge","disagree-key","Sharks are white.","Sharks","are white"
20,1200,"truthJudge","disagree-key","Tigers eat people.","Tigers","eat people"
20,991,"truthJudge","agree-key","Ducks have wings.","Ducks","have wings"
20,1080,"truthJudge","disagree-key","Tigers have pouches.","Tigers","have pouches"
20,954,"truthJudge","disagree-key","Kangaroos have spots.","Kangaroos","have spots"
20,1234,"truthJudge","disagree-key","Leopards are juvenile.","Leopards","are juvenile"
20,1410,"truthJudge","agree-key","Ticks carry Lyme disease.","Ticks","carry Lyme disease"
21,3277,"truthJudge","agree-key","Ticks carry Lyme disease.","Ticks","carry Lyme disease"
21,1071,"truthJudge","agree-key","Peacocks have beautiful feathers.","Peacocks","have beautiful feathers"
21,3396,"truthJudge","disagree-key","Sharks are white.","Sharks","are white"
21,1326,"truthJudge","disagree-key","Robins are female.","Robins","are female"
21,1469,"truthJudge","disagree-key","Tigers have pouches.","Tigers","have pouches"
21,1237,"truthJudge","disagree-key","Peacocks dont have beautiful feathers.","Peacocks","dont have beautiful feathers"
21,1014,"truthJudge","agree-key","Cardinals are red.","Cardinals","are red"
21,1093,"truthJudge","agree-key","Swans are white.","Swans","are white"
21,2752,"truthJudge","disagree-key","Mosquitos attack swimmers.","Mosquitos","attack swimmers"
21,1310,"truthJudge","disagree-key","Robins carry malaria.","Robins","carry malaria"
21,1053,"truthJudge","disagree-key","Mosquitos dont carry malaria.","Mosquitos","dont carry malaria"
21,3136,"truthJudge","disagree-key","Leopards are juvenile.","Leopards","are juvenile"
21,2289,"truthJudge","disagree-key","Lions are male.","Lions","are male"
21,1014,"truthJudge","disagree-key","Lions lay eggs.","Lions","lay eggs"
21,1662,"truthJudge","agree-key","Mosquitos carry malaria.","Mosquitos","carry malaria"
21,964,"truthJudge","disagree-key","Tigers dont eat people.","Tigers","dont eat people"
21,889,"truthJudge","agree-key","Kangaroos have pouches.","Kangaroos","have pouches"
21,2389,"truthJudge","disagree-key","Tigers eat people.","Tigers","eat people"
21,1165,"truthJudge","disagree-key","Ticks dont carry Lyme disease.","Ticks","dont carry Lyme disease"
21,1248,"truthJudge","agree-key","Ducks have wings.","Ducks","have wings"
21,1110,"truthJudge","disagree-key","Sharks have manes.","Sharks","have manes"
21,1501,"truthJudge","disagree-key","Kangaroos have spots.","Kangaroos","have spots"
21,906,"truthJudge","agree-key","Lions have manes.","Lions","have manes"
21,933,"truthJudge","disagree-key","Leopards have wings.","Leopards","have wings"
21,2057,"truthJudge","agree-key","Leopards have spots.","Leopards","have spots"
21,1614,"truthJudge","agree-key","Sharks attack swimmers.","Sharks","attack swimmers"
21,1293,"truthJudge","disagree-key","Sharks dont attack swimmers.","Sharks","dont attack swimmers"
21,839,"truthJudge","agree-key","Robins lay eggs.","Robins","lay eggs"
21,798,"truthJudge","disagree-key","Sharks lay eggs.","Sharks","lay eggs"
21,2669,"truthJudge","agree-key","Swans are full-grown.","Swans","are full-grown"
22,2896,"truthJudge","disagree-key","Peacocks dont have beautiful feathers.","Peacocks","dont have beautiful feathers"
22,1925,"truthJudge","disagree-key","Tigers dont eat people.","Tigers","dont eat people"
22,980,"truthJudge","agree-key","Lions have manes.","Lions","have manes"
22,1149,"truthJudge","disagree-key","Kangaroos have spots.","Kangaroos","have spots"
22,1578,"truthJudge","agree-key","Mosquitos carry malaria.","Mosquitos","carry malaria"
22,1407,"truthJudge","disagree-key","Leopards are juvenile.","Leopards","are juvenile"
22,775,"truthJudge","agree-key","Leopards have spots.","Leopards","have spots"
22,1437,"truthJudge","disagree-key","Mosquitos dont carry malaria.","Mosquitos","dont carry malaria"
22,2481,"truthJudge","disagree-key","Sharks lay eggs.","Sharks","lay eggs"
22,1466,"truthJudge","agree-key","Swans are white.","Swans","are white"
22,1080,"truthJudge","agree-key","Robins lay eggs.","Robins","lay eggs"
22,2095,"truthJudge","agree-key","Ticks carry Lyme disease.","Ticks","carry Lyme disease"
22,1487,"truthJudge","disagree-key","Robins carry malaria.","Robins","carry malaria"
22,1394,"truthJudge","agree-key","Swans are full-grown.","Swans","are full-grown"
22,1797,"truthJudge","agree-key","Mosquitos attack swimmers.","Mosquitos","attack swimmers"
22,1536,"truthJudge","disagree-key","Lions are male.","Lions","are male"
22,1178,"truthJudge","agree-key","Peacocks have beautiful feathers.","Peacocks","have beautiful feathers"
22,956,"truthJudge","agree-key","Tigers eat people.","Tigers","eat people"
22,1602,"truthJudge","disagree-key","Ticks dont carry Lyme disease.","Ticks","dont carry Lyme disease"
22,1148,"truthJudge","agree-key","Kangaroos have pouches.","Kangaroos","have pouches"
22,1174,"truthJudge","disagree-key","Lions lay eggs.","Lions","lay eggs"
22,1390,"truthJudge","disagree-key","Robins are female.","Robins","are female"
22,1374,"truthJudge","disagree-key","Sharks dont attack swimmers.","Sharks","dont attack swimmers"
22,2322,"truthJudge","disagree-key","Sharks are white.","Sharks","are white"
22,1218,"truthJudge","disagree-key","Tigers have pouches.","Tigers","have pouches"
22,1263,"truthJudge","agree-key","Sharks attack swimmers.","Sharks","attack swimmers"
22,880,"truthJudge","agree-key","Cardinals are red.","Cardinals","are red"
22,2765,"truthJudge","agree-key","Ducks have wings.","Ducks","have wings"
22,869,"truthJudge","disagree-key","Sharks have manes.","Sharks","have manes"
22,916,"truthJudge","disagree-key","Leopards have wings.","Leopards","have wings"
23,7593,"truthJudge","disagree-key","Mosquitos attack swimmers.","Mosquitos","attack swimmers"
23,3424,"truthJudge","agree-key","Cardinals are red.","Cardinals","are red"
23,2435,"truthJudge","disagree-key","Leopards have wings.","Leopards","have wings"
23,2979,"truthJudge","disagree-key","Ticks dont carry Lyme disease.","Ticks","dont carry Lyme disease"
23,2362,"truthJudge","agree-key","Mosquitos carry malaria.","Mosquitos","carry malaria"
23,2442,"truthJudge","agree-key","Sharks are white.","Sharks","are white"
23,2270,"truthJudge","disagree-key","Tigers dont eat people.","Tigers","dont eat people"
23,3393,"truthJudge","disagree-key","Mosquitos dont carry malaria.","Mosquitos","dont carry malaria"
23,2818,"truthJudge","agree-key","Ducks have wings.","Ducks","have wings"
23,2554,"truthJudge","disagree-key","Tigers have pouches.","Tigers","have pouches"
23,2059,"truthJudge","agree-key","Leopards have spots.","Leopards","have spots"
23,3019,"truthJudge","disagree-key","Leopards are juvenile.","Leopards","are juvenile"
23,2490,"truthJudge","disagree-key","Robins are female.","Robins","are female"
23,1965,"truthJudge","disagree-key","Sharks have manes.","Sharks","have manes"
23,5891,"truthJudge","agree-key","Lions are male.","Lions","are male"
23,2114,"truthJudge","disagree-key","Sharks lay eggs.","Sharks","lay eggs"
23,1715,"truthJudge","disagree-key","Kangaroos have spots.","Kangaroos","have spots"
23,2099,"truthJudge","agree-key","Ticks carry Lyme disease.","Ticks","carry Lyme disease"
23,1611,"truthJudge","agree-key","Tigers eat people.","Tigers","eat people"
23,2043,"truthJudge","agree-key","Peacocks have beautiful feathers.","Peacocks","have beautiful feathers"
23,2068,"truthJudge","disagree-key","Sharks dont attack swimmers.","Sharks","dont attack swimmers"
23,2210,"truthJudge","agree-key","Robins lay eggs.","Robins","lay eggs"
23,2862,"truthJudge","agree-key","Lions have manes.","Lions","have manes"
23,4135,"truthJudge","agree-key","Swans are full-grown.","Swans","are full-grown"
23,1660,"truthJudge","agree-key","Kangaroos have pouches.","Kangaroos","have pouches"
23,1531,"truthJudge","agree-key","Sharks attack swimmers.","Sharks","attack swimmers"
23,1852,"truthJudge","disagree-key","Lions lay eggs.","Lions","lay eggs"
23,2020,"truthJudge","disagree-key","Peacocks dont have beautiful feathers.","Peacocks","dont have beautiful feathers"
23,2318,"truthJudge","agree-key","Swans are white.","Swans","are white"
23,1795,"truthJudge","disagree-key","Robins carry malaria.","Robins","carry malaria"
24,2577,"truthJudge","agree-key","Swans are white.","Swans","are white"
24,1722,"truthJudge","disagree-key","Sharks lay eggs.","Sharks","lay eggs"
24,3011,"truthJudge","disagree-key","Leopards are juvenile.","Leopards","are juvenile"
24,1280,"truthJudge","agree-key","Lions have manes.","Lions","have manes"
24,960,"truthJudge","agree-key","Kangaroos have pouches.","Kangaroos","have pouches"
24,1579,"truthJudge","disagree-key","Lions lay eggs.","Lions","lay eggs"
24,1183,"truthJudge","disagree-key","Sharks have manes.","Sharks","have manes"
24,1520,"truthJudge","agree-key","Lions are male.","Lions","are male"
24,856,"truthJudge","disagree-key","Tigers have pouches.","Tigers","have pouches"
24,1247,"truthJudge","agree-key","Peacocks have beautiful feathers.","Peacocks","have beautiful feathers"
24,1299,"truthJudge","disagree-key","Sharks dont attack swimmers.","Sharks","dont attack swimmers"
24,1067,"truthJudge","disagree-key","Tigers dont eat people.","Tigers","dont eat people"
24,967,"truthJudge","disagree-key","Sharks are white.","Sharks","are white"
24,1227,"truthJudge","agree-key","Leopards have spots.","Leopards","have spots"
24,983,"truthJudge","agree-key","Tigers eat people.","Tigers","eat people"
24,1139,"truthJudge","agree-key","Ticks carry Lyme disease.","Ticks","carry Lyme disease"
24,1107,"truthJudge","agree-key","Swans are full-grown.","Swans","are full-grown"
24,1211,"truthJudge","agree-key","Ducks have wings.","Ducks","have wings"
24,1103,"truthJudge","disagree-key","Ticks dont carry Lyme disease.","Ticks","dont carry Lyme disease"
24,1263,"truthJudge","disagree-key","Mosquitos dont carry malaria.","Mosquitos","dont carry malaria"
24,1560,"truthJudge","agree-key","Mosquitos attack swimmers.","Mosquitos","attack swimmers"
24,1191,"truthJudge","agree-key","Robins are female.","Robins","are female"
24,1038,"truthJudge","disagree-key","Kangaroos have spots.","Kangaroos","have spots"
24,847,"truthJudge","disagree-key","Leopards have wings.","Leopards","have wings"
24,1391,"truthJudge","agree-key","Robins lay eggs.","Robins","lay eggs"
24,1364,"truthJudge","disagree-key","Robins carry malaria.","Robins","carry malaria"
24,1190,"truthJudge","agree-key","Mosquitos carry malaria.","Mosquitos","carry malaria"
24,927,"truthJudge","disagree-key","Peacocks dont have beautiful feathers.","Peacocks","dont have beautiful feathers"
24,1027,"truthJudge","agree-key","Sharks attack swimmers.","Sharks","attack swimmers"
24,1072,"truthJudge","agree-key","Cardinals are red.","Cardinals","are red"
25,3058,"truthJudge","disagree-key","Sharks dont attack swimmers.","Sharks","dont attack swimmers"
25,2541,"truthJudge","disagree-key","Leopards are juvenile.","Leopards","are juvenile"
25,2970,"truthJudge","agree-key","Lions are male.","Lions","are male"
25,1185,"truthJudge","agree-key","Kangaroos have pouches.","Kangaroos","have pouches"
25,1002,"truthJudge","disagree-key","Ducks have wings.","Ducks","have wings"
25,2097,"truthJudge","agree-key","Robins lay eggs.","Robins","lay eggs"
25,1945,"truthJudge","disagree-key","Ticks dont carry Lyme disease.","Ticks","dont carry Lyme disease"
25,857,"truthJudge","agree-key","Mosquitos carry malaria.","Mosquitos","carry malaria"
25,857,"truthJudge","agree-key","Ticks carry Lyme disease.","Ticks","carry Lyme disease"
25,4816,"truthJudge","disagree-key","Peacocks dont have beautiful feathers.","Peacocks","dont have beautiful feathers"
25,1074,"truthJudge","disagree-key","Tigers have pouches.","Tigers","have pouches"
25,3426,"truthJudge","disagree-key","Sharks are white.","Sharks","are white"
25,1617,"truthJudge","disagree-key","Tigers dont eat people.","Tigers","dont eat people"
25,1538,"truthJudge","disagree-key","Sharks lay eggs.","Sharks","lay eggs"
25,1170,"truthJudge","agree-key","Lions have manes.","Lions","have manes"
25,1562,"truthJudge","disagree-key","Robins are female.","Robins","are female"
25,1162,"truthJudge","agree-key","Tigers eat people.","Tigers","eat people"
25,2506,"truthJudge","disagree-key","Sharks have manes.","Sharks","have manes"
25,1297,"truthJudge","disagree-key","Mosquitos attack swimmers.","Mosquitos","attack swimmers"
25,2690,"truthJudge","agree-key","Peacocks have beautiful feathers.","Peacocks","have beautiful feathers"
25,1113,"truthJudge","disagree-key","Kangaroos have spots.","Kangaroos","have spots"
25,929,"truthJudge","agree-key","Swans are white.","Swans","are white"
25,1026,"truthJudge","disagree-key","Leopards have wings.","Leopards","have wings"
25,1050,"truthJudge","agree-key","Sharks attack swimmers.","Sharks","attack swimmers"
25,986,"truthJudge","disagree-key","Robins carry malaria.","Robins","carry malaria"
25,1121,"truthJudge","agree-key","Leopards have spots.","Leopards","have spots"
25,1354,"truthJudge","disagree-key","Swans are full-grown.","Swans","are full-grown"
25,1122,"truthJudge","agree-key","Cardinals are red.","Cardinals","are red"
25,1265,"truthJudge","disagree-key","Mosquitos dont carry malaria.","Mosquitos","dont carry malaria"
25,1010,"truthJudge","disagree-key","Lions lay eggs.","Lions","lay eggs"
26,2123,"truthJudge","agree-key","Leopards have spots.","Leopards","have spots"
26,2438,"truthJudge","agree-key","Mosquitos dont carry malaria.","Mosquitos","dont carry malaria"
26,1480,"truthJudge","agree-key","Mosquitos carry malaria.","Mosquitos","carry malaria"
26,1882,"truthJudge","agree-key","Cardinals are red.","Cardinals","are red"
26,1728,"truthJudge","agree-key","Ducks have wings.","Ducks","have wings"
26,1001,"truthJudge","agree-key","Kangaroos have pouches.","Kangaroos","have pouches"
26,2193,"truthJudge","disagree-key","Robins lay eggs.","Robins","lay eggs"
26,1282,"truthJudge","disagree-key","Robins carry malaria.","Robins","carry malaria"
26,1241,"truthJudge","disagree-key","Tigers have pouches.","Tigers","have pouches"
26,1849,"truthJudge","disagree-key","Sharks are white.","Sharks","are white"
26,1604,"truthJudge","agree-key","Ticks carry Lyme disease.","Ticks","carry Lyme disease"
26,1344,"truthJudge","agree-key","Sharks attack swimmers.","Sharks","attack swimmers"
26,1989,"truthJudge","agree-key","Robins are female.","Robins","are female"
26,1199,"truthJudge","agree-key","Swans are white.","Swans","are white"
26,1600,"truthJudge","disagree-key","Mosquitos attack swimmers.","Mosquitos","attack swimmers"
26,1013,"truthJudge","agree-key","Lions are male.","Lions","are male"
26,2153,"truthJudge","disagree-key","Sharks dont attack swimmers.","Sharks","dont attack swimmers"
26,2298,"truthJudge","agree-key","Swans are full-grown.","Swans","are full-grown"
26,1669,"truthJudge","disagree-key","Sharks have manes.","Sharks","have manes"
26,1553,"truthJudge","disagree-key","Sharks lay eggs.","Sharks","lay eggs"
26,1092,"truthJudge","disagree-key","Leopards have wings.","Leopards","have wings"
26,1525,"truthJudge","disagree-key","Lions lay eggs.","Lions","lay eggs"
26,1563,"truthJudge","disagree-key","Tigers dont eat people.","Tigers","dont eat people"
26,1833,"truthJudge","disagree-key","Leopards are juvenile.","Leopards","are juvenile"
26,1643,"truthJudge","disagree-key","Peacocks dont have beautiful feathers.","Peacocks","dont have beautiful feathers"
26,1384,"truthJudge","agree-key","Lions have manes.","Lions","have manes"
26,1064,"truthJudge","disagree-key","Kangaroos have spots.","Kangaroos","have spots"
26,847,"truthJudge","agree-key","Tigers eat people.","Tigers","eat people"
26,1019,"truthJudge","disagree-key","Ticks dont carry Lyme disease.","Ticks","dont carry Lyme disease"
26,1315,"truthJudge","agree-key","Peacocks have beautiful feathers.","Peacocks","have beautiful feathers"
27,6147,"truthJudge","disagree-key","Leopards have wings.","Leopards","have wings"
27,1779,"truthJudge","disagree-key","Lions lay eggs.","Lions","lay eggs"
27,2258,"truthJudge","disagree-key","Peacocks dont have beautiful feathers.","Peacocks","dont have beautiful feathers"
27,1207,"truthJudge","disagree-key","Tigers have pouches.","Tigers","have pouches"
27,1380,"truthJudge","disagree-key","Ducks have wings.","Ducks","have wings"
27,2984,"truthJudge","disagree-key","Mosquitos dont carry malaria.","Mosquitos","dont carry malaria"
27,2509,"truthJudge","agree-key","Cardinals are red.","Cardinals","are red"
27,1440,"truthJudge","agree-key","Kangaroos have pouches.","Kangaroos","have pouches"
27,1559,"truthJudge","agree-key","Peacocks have beautiful feathers.","Peacocks","have beautiful feathers"
27,1769,"truthJudge","disagree-key","Robins are female.","Robins","are female"
27,1960,"truthJudge","disagree-key","Tigers dont eat people.","Tigers","dont eat people"
27,1799,"truthJudge","disagree-key","Sharks have manes.","Sharks","have manes"
27,1724,"truthJudge","disagree-key","Leopards are juvenile.","Leopards","are juvenile"
27,1990,"truthJudge","disagree-key","Sharks lay eggs.","Sharks","lay eggs"
27,1993,"truthJudge","disagree-key","Robins carry malaria.","Robins","carry malaria"
27,1405,"truthJudge","disagree-key","Kangaroos have spots.","Kangaroos","have spots"
27,1197,"truthJudge","agree-key","Robins lay eggs.","Robins","lay eggs"
27,1349,"truthJudge","agree-key","Leopards have spots.","Leopards","have spots"
27,1125,"truthJudge","agree-key","Mosquitos carry malaria.","Mosquitos","carry malaria"
27,1927,"truthJudge","disagree-key","Lions are male.","Lions","are male"
27,1939,"truthJudge","disagree-key","Sharks dont attack swimmers.","Sharks","dont attack swimmers"
27,2546,"truthJudge","disagree-key","Ticks dont carry Lyme disease.","Ticks","dont carry Lyme disease"
27,1473,"truthJudge","agree-key","Lions have manes.","Lions","have manes"
27,1627,"truthJudge","agree-key","Sharks are white.","Sharks","are white"
27,1360,"truthJudge","agree-key","Tigers eat people.","Tigers","eat people"
27,1664,"truthJudge","agree-key","Swans are white.","Swans","are white"
27,1233,"truthJudge","disagree-key","Mosquitos attack swimmers.","Mosquitos","attack swimmers"
27,2040,"truthJudge","agree-key","Ticks carry Lyme disease.","Ticks","carry Lyme disease"
27,2297,"truthJudge","disagree-key","Swans are full-grown.","Swans","are full-grown"
27,1680,"truthJudge","agree-key","Sharks attack swimmers.","Sharks","attack swimmers"
28,9970,"truthJudge","disagree-key","Leopards have wings.","Leopards","have wings"
28,5329,"truthJudge","agree-key","Lions have manes.","Lions","have manes"
28,3444,"truthJudge","disagree-key","Tigers eat people.","Tigers","eat people"
28,4524,"truthJudge","agree-key","Mosquitos attack swimmers.","Mosquitos","attack swimmers"
28,1931,"truthJudge","agree-key","Kangaroos have pouches.","Kangaroos","have pouches"
28,2484,"truthJudge","agree-key","Tigers dont eat people.","Tigers","dont eat people"
28,4969,"truthJudge","disagree-key","Robins are female.","Robins","are female"
28,4803,"truthJudge","agree-key","Mosquitos carry malaria.","Mosquitos","carry malaria"
28,1941,"truthJudge","agree-key","Robins lay eggs.","Robins","lay eggs"
28,2269,"truthJudge","agree-key","Leopards have spots.","Leopards","have spots"
28,2828,"truthJudge","disagree-key","Peacocks dont have beautiful feathers.","Peacocks","dont have beautiful feathers"
28,3553,"truthJudge","agree-key","Swans are white.","Swans","are white"
28,4113,"truthJudge","disagree-key","Sharks lay eggs.","Sharks","lay eggs"
28,3435,"truthJudge","disagree-key","Sharks dont attack swimmers.","Sharks","dont attack swimmers"
28,2686,"truthJudge","agree-key","Ticks carry Lyme disease.","Ticks","carry Lyme disease"
28,3469,"truthJudge","disagree-key","Sharks have manes.","Sharks","have manes"
28,4725,"truthJudge","disagree-key","Lions lay eggs.","Lions","lay eggs"
28,2434,"truthJudge","disagree-key","Kangaroos have spots.","Kangaroos","have spots"
28,2439,"truthJudge","disagree-key","Mosquitos dont carry malaria.","Mosquitos","dont carry malaria"
28,2849,"truthJudge","disagree-key","Robins carry malaria.","Robins","carry malaria"
28,7445,"truthJudge","agree-key","Swans are full-grown.","Swans","are full-grown"
28,2028,"truthJudge","disagree-key","Ticks dont carry Lyme disease.","Ticks","dont carry Lyme disease"
28,3627,"truthJudge","agree-key","Sharks attack swimmers.","Sharks","attack swimmers"
28,6183,"truthJudge","disagree-key","Lions are male.","Lions","are male"
28,2047,"truthJudge","agree-key","Ducks have wings.","Ducks","have wings"
28,4539,"truthJudge","disagree-key","Sharks are white.","Sharks","are white"
28,2700,"truthJudge","agree-key","Cardinals are red.","Cardinals","are red"
28,1911,"truthJudge","disagree-key","Tigers have pouches.","Tigers","have pouches"
28,2084,"truthJudge","agree-key","Peacocks have beautiful feathers.","Peacocks","have beautiful feathers"
28,2786,"truthJudge","disagree-key","Leopards are juvenile.","Leopards","are juvenile"
29,3605,"truthJudge","agree-key","Robins are female.","Robins","are female"
29,4122,"truthJudge","disagree-key","Leopards are juvenile.","Leopards","are juvenile"
29,1847,"truthJudge","disagree-key","Kangaroos have spots.","Kangaroos","have spots"
29,1186,"truthJudge","agree-key","Cardinals are red.","Cardinals","are red"
29,1066,"truthJudge","disagree-key","Lions lay eggs.","Lions","lay eggs"
29,1675,"truthJudge","agree-key","Mosquitos carry malaria.","Mosquitos","carry malaria"
29,1107,"truthJudge","agree-key","Robins lay eggs.","Robins","lay eggs"
29,1619,"truthJudge","agree-key","Ticks carry Lyme disease.","Ticks","carry Lyme disease"
29,1379,"truthJudge","disagree-key","Mosquitos dont carry malaria.","Mosquitos","dont carry malaria"
29,1340,"truthJudge","agree-key","Lions have manes.","Lions","have manes"
29,2296,"truthJudge","agree-key","Sharks are white.","Sharks","are white"
29,1741,"truthJudge","disagree-key","Peacocks dont have beautiful feathers.","Peacocks","dont have beautiful feathers"
29,1665,"truthJudge","agree-key","Sharks attack swimmers.","Sharks","attack swimmers"
29,1266,"truthJudge","disagree-key","Robins carry malaria.","Robins","carry malaria"
29,1205,"truthJudge","agree-key","Kangaroos have pouches.","Kangaroos","have pouches"
29,1814,"truthJudge","disagree-key","Sharks have manes.","Sharks","have manes"
29,872,"truthJudge","agree-key","Ducks have wings.","Ducks","have wings"
29,1378,"truthJudge","disagree-key","Ticks dont carry Lyme disease.","Ticks","dont carry Lyme disease"
29,1890,"truthJudge","disagree-key","Tigers dont eat people.","Tigers","dont eat people"
29,1379,"truthJudge","agree-key","Swans are white.","Swans","are white"
29,1618,"truthJudge","disagree-key","Sharks dont attack swimmers.","Sharks","dont attack swimmers"
29,1691,"truthJudge","disagree-key","Leopards have wings.","Leopards","have wings"
29,1053,"truthJudge","agree-key","Peacocks have beautiful feathers.","Peacocks","have beautiful feathers"
29,987,"truthJudge","disagree-key","Tigers have pouches.","Tigers","have pouches"
29,3883,"truthJudge","disagree-key","Lions are male.","Lions","are male"
29,2890,"truthJudge","agree-key","Swans are full-grown.","Swans","are full-grown"
29,1930,"truthJudge","agree-key","Tigers eat people.","Tigers","eat people"
29,1650,"truthJudge","agree-key","Leopards have spots.","Leopards","have spots"
29,1035,"truthJudge","disagree-key","Mosquitos attack swimmers.","Mosquitos","attack swimmers"
29,889,"truthJudge","disagree-key","Sharks lay eggs.","Sharks","lay eggs"
30,2603,"truthJudge","agree-key","Lions have manes.","Lions","have manes"
30,1096,"truthJudge","agree-key","Peacocks have beautiful feathers.","Peacocks","have beautiful feathers"
30,1065,"truthJudge","disagree-key","Tigers have pouches.","Tigers","have pouches"
30,2019,"truthJudge","disagree-key","Mosquitos dont carry malaria.","Mosquitos","dont carry malaria"
30,1811,"truthJudge","disagree-key","Robins carry malaria.","Robins","carry malaria"
30,1402,"truthJudge","agree-key","Mosquitos carry malaria.","Mosquitos","carry malaria"
30,1155,"truthJudge","agree-key","Cardinals are red.","Cardinals","are red"
30,834,"truthJudge","agree-key","Lions are male.","Lions","are male"
30,1554,"truthJudge","disagree-key","Tigers eat people.","Tigers","eat people"
30,1244,"truthJudge","agree-key","Ducks have wings.","Ducks","have wings"
30,1218,"truthJudge","disagree-key","Sharks have manes.","Sharks","have manes"
30,4337,"truthJudge","disagree-key","Swans are full-grown.","Swans","are full-grown"
30,1747,"truthJudge","disagree-key","Ticks dont carry Lyme disease.","Ticks","dont carry Lyme disease"
30,962,"truthJudge","disagree-key","Lions lay eggs.","Lions","lay eggs"
30,2108,"truthJudge","agree-key","Sharks attack swimmers.","Sharks","attack swimmers"
30,2514,"truthJudge","disagree-key","Sharks are white.","Sharks","are white"
30,1907,"truthJudge","disagree-key","Robins are female.","Robins","are female"
30,2562,"truthJudge","disagree-key","Sharks dont attack swimmers.","Sharks","dont attack swimmers"
30,1627,"truthJudge","disagree-key","Peacocks dont have beautiful feathers.","Peacocks","dont have beautiful feathers"
30,1427,"truthJudge","disagree-key","Mosquitos attack swimmers.","Mosquitos","attack swimmers"
30,2027,"truthJudge","agree-key","Tigers dont eat people.","Tigers","dont eat people"
30,932,"truthJudge","agree-key","Kangaroos have pouches.","Kangaroos","have pouches"
30,1426,"truthJudge","agree-key","Leopards have spots.","Leopards","have spots"
30,1619,"truthJudge","agree-key","Swans are white.","Swans","are white"
30,1571,"truthJudge","disagree-key","Leopards have wings.","Leopards","have wings"
30,1659,"truthJudge","disagree-key","Leopards are juvenile.","Leopards","are juvenile"
30,1267,"truthJudge","agree-key","Robins lay eggs.","Robins","lay eggs"
30,1396,"truthJudge","agree-key","Ticks carry Lyme disease.","Ticks","carry Lyme disease"
30,1523,"truthJudge","disagree-key","Sharks lay eggs.","Sharks","lay eggs"
30,1291,"truthJudge","disagree-key","Kangaroos have spots.","Kangaroos","have spots"
31,2499,"truthJudge","disagree-key","Lions lay eggs.","Lions","lay eggs"
31,6982,"truthJudge","agree-key","Sharks attack swimmers.","Sharks","attack swimmers"
31,1505,"truthJudge","agree-key","Swans are white.","Swans","are white"
31,1162,"truthJudge","agree-key","Robins lay eggs.","Robins","lay eggs"
31,1003,"truthJudge","agree-key","Lions have manes.","Lions","have manes"
31,2875,"truthJudge","agree-key","Ticks carry Lyme disease.","Ticks","carry Lyme disease"
31,1243,"truthJudge","disagree-key","Kangaroos have spots.","Kangaroos","have spots"
31,5203,"truthJudge","agree-key","Swans are full-grown.","Swans","are full-grown"
31,2097,"truthJudge","disagree-key","Peacocks dont have beautiful feathers.","Peacocks","dont have beautiful feathers"
31,1837,"truthJudge","disagree-key","Leopards have wings.","Leopards","have wings"
31,1763,"truthJudge","agree-key","Kangaroos have pouches.","Kangaroos","have pouches"
31,1907,"truthJudge","disagree-key","Robins carry malaria.","Robins","carry malaria"
31,2738,"truthJudge","disagree-key","Ticks dont carry Lyme disease.","Ticks","dont carry Lyme disease"
31,2435,"truthJudge","agree-key","Ducks have wings.","Ducks","have wings"
31,1387,"truthJudge","agree-key","Leopards have spots.","Leopards","have spots"
31,2163,"truthJudge","disagree-key","Leopards are juvenile.","Leopards","are juvenile"
31,2099,"truthJudge","disagree-key","Robins are female.","Robins","are female"
31,1457,"truthJudge","disagree-key","Sharks have manes.","Sharks","have manes"
31,3402,"truthJudge","agree-key","Mosquitos attack swimmers.","Mosquitos","attack swimmers"
31,2387,"truthJudge","disagree-key","Mosquitos dont carry malaria.","Mosquitos","dont carry malaria"
31,2003,"truthJudge","disagree-key","Tigers have pouches.","Tigers","have pouches"
31,2004,"truthJudge","agree-key","Sharks dont attack swimmers.","Sharks","dont attack swimmers"
31,2131,"truthJudge","disagree-key","Sharks are white.","Sharks","are white"
31,3147,"truthJudge","disagree-key","Sharks lay eggs.","Sharks","lay eggs"
31,2506,"truthJudge","agree-key","Mosquitos carry malaria.","Mosquitos","carry malaria"
31,4194,"truthJudge","agree-key","Tigers dont eat people.","Tigers","dont eat people"
31,3347,"truthJudge","agree-key","Tigers eat people.","Tigers","eat people"
31,3641,"truthJudge","agree-key","Cardinals are red.","Cardinals","are red"
31,2052,"truthJudge","disagree-key","Lions are male.","Lions","are male"
31,3532,"truthJudge","agree-key","Peacocks have beautiful feathers.","Peacocks","have beautiful feathers"
32,5008,"truthJudge","disagree-key","Tigers dont eat people.","Tigers","dont eat people"
32,3156,"truthJudge","disagree-key","Leopards are juvenile.","Leopards","are juvenile"
32,2431,"truthJudge","agree-key","Robins are female.","Robins","are female"
32,1664,"truthJudge","agree-key","Kangaroos have pouches.","Kangaroos","have pouches"
32,1672,"truthJudge","disagree-key","Mosquitos dont carry malaria.","Mosquitos","dont carry malaria"
32,1260,"truthJudge","disagree-key","Lions lay eggs.","Lions","lay eggs"
32,1756,"truthJudge","agree-key","Ticks carry Lyme disease.","Ticks","carry Lyme disease"
32,1673,"truthJudge","disagree-key","Tigers have pouches.","Tigers","have pouches"
32,2561,"truthJudge","disagree-key","Kangaroos have spots.","Kangaroos","have spots"
32,3110,"truthJudge","agree-key","Tigers eat people.","Tigers","eat people"
32,1388,"truthJudge","agree-key","Mosquitos carry malaria.","Mosquitos","carry malaria"
32,1864,"truthJudge","agree-key","Cardinals are red.","Cardinals","are red"
32,1145,"truthJudge","agree-key","Robins lay eggs.","Robins","lay eggs"
32,2706,"truthJudge","disagree-key","Peacocks dont have beautiful feathers.","Peacocks","dont have beautiful feathers"
32,1294,"truthJudge","disagree-key","Leopards have wings.","Leopards","have wings"
32,1089,"truthJudge","disagree-key","Sharks lay eggs.","Sharks","lay eggs"
32,4104,"truthJudge","disagree-key","Robins carry malaria.","Robins","carry malaria"
32,1998,"truthJudge","agree-key","Swans are white.","Swans","are white"
32,1328,"truthJudge","agree-key","Leopards have spots.","Leopards","have spots"
32,2285,"truthJudge","disagree-key","Sharks have manes.","Sharks","have manes"
32,2152,"truthJudge","disagree-key","Ticks dont carry Lyme disease.","Ticks","dont carry Lyme disease"
32,2304,"truthJudge","agree-key","Mosquitos attack swimmers.","Mosquitos","attack swimmers"
32,17073,"truthJudge","agree-key","Sharks attack swimmers.","Sharks","attack swimmers"
32,1648,"truthJudge","disagree-key","Sharks dont attack swimmers.","Sharks","dont attack swimmers"
32,7762,"truthJudge","agree-key","Peacocks have beautiful feathers.","Peacocks","have beautiful feathers"
32,2334,"truthJudge","agree-key","Lions have manes.","Lions","have manes"
32,2980,"truthJudge","disagree-key","Swans are full-grown.","Swans","are full-grown"
32,1512,"truthJudge","agree-key","Ducks have wings.","Ducks","have wings"
32,2173,"truthJudge","agree-key","Lions are male.","Lions","are male"
32,2176,"truthJudge","disagree-key","Sharks are white.","Sharks","are white"
33,4163,"truthJudge","disagree-key","Tigers have pouches.","Tigers","have pouches"
33,2478,"truthJudge","agree-key","Mosquitos carry malaria.","Mosquitos","carry malaria"
33,1526,"truthJudge","agree-key","Lions have manes.","Lions","have manes"
33,5067,"truthJudge","disagree-key","Leopards are juvenile.","Leopards","are juvenile"
33,2299,"truthJudge","disagree-key","Sharks are white.","Sharks","are white"
33,1455,"truthJudge","agree-key","Sharks attack swimmers.","Sharks","attack swimmers"
33,2027,"truthJudge","agree-key","Lions are male.","Lions","are male"
33,1388,"truthJudge","agree-key","Ticks carry Lyme disease.","Ticks","carry Lyme disease"
33,1516,"truthJudge","disagree-key","Sharks dont attack swimmers.","Sharks","dont attack swimmers"
33,1756,"truthJudge","agree-key","Kangaroos have pouches.","Kangaroos","have pouches"
33,7739,"truthJudge","disagree-key","Swans are full-grown.","Swans","are full-grown"
33,11146,"truthJudge","disagree-key","Leopards have wings.","Leopards","have wings"
33,1661,"truthJudge","disagree-key","Lions lay eggs.","Lions","lay eggs"
33,2203,"truthJudge","agree-key","Swans are white.","Swans","are white"
33,2554,"truthJudge","disagree-key","Robins are female.","Robins","are female"
33,1547,"truthJudge","disagree-key","Mosquitos dont carry malaria.","Mosquitos","dont carry malaria"
33,1321,"truthJudge","disagree-key","Sharks lay eggs.","Sharks","lay eggs"
33,3211,"truthJudge","disagree-key","Tigers dont eat people.","Tigers","dont eat people"
33,3405,"truthJudge","disagree-key","Peacocks dont have beautiful feathers.","Peacocks","dont have beautiful feathers"
33,1499,"truthJudge","disagree-key","Robins carry malaria.","Robins","carry malaria"
33,1740,"truthJudge","agree-key","Cardinals are red.","Cardinals","are red"
33,1612,"truthJudge","agree-key","Leopards have spots.","Leopards","have spots"
33,2699,"truthJudge","disagree-key","Ticks dont carry Lyme disease.","Ticks","dont carry Lyme disease"
33,1755,"truthJudge","agree-key","Tigers eat people.","Tigers","eat people"
33,1643,"truthJudge","agree-key","Ducks have wings.","Ducks","have wings"
33,3723,"truthJudge","disagree-key","Mosquitos attack swimmers.","Mosquitos","attack swimmers"
33,1820,"truthJudge","disagree-key","Sharks have manes.","Sharks","have manes"
33,1820,"truthJudge","agree-key","Robins lay eggs.","Robins","lay eggs"
33,1690,"truthJudge","disagree-key","Kangaroos have spots.","Kangaroos","have spots"
33,1835,"truthJudge","agree-key","Peacocks have beautiful feathers.","Peacocks","have beautiful feathers"
34,4266,"truthJudge","agree-key","Swans are white.","Swans","are white"
34,3086,"truthJudge","disagree-key","Tigers have pouches.","Tigers","have pouches"
34,2470,"truthJudge","agree-key","Peacocks have beautiful feathers.","Peacocks","have beautiful feathers"
34,3505,"truthJudge","disagree-key","Robins are female.","Robins","are female"
34,1642,"truthJudge","disagree-key","Lions are male.","Lions","are male"
34,2357,"truthJudge","disagree-key","Tigers dont eat people.","Tigers","dont eat people"
34,2813,"truthJudge","agree-key","Ticks carry Lyme disease.","Ticks","carry Lyme disease"
34,2348,"truthJudge","disagree-key","Sharks lay eggs.","Sharks","lay eggs"
34,3024,"truthJudge","agree-key","Lions have manes.","Lions","have manes"
34,3201,"truthJudge","agree-key","Mosquitos carry malaria.","Mosquitos","carry malaria"
34,1812,"truthJudge","disagree-key","Leopards have wings.","Leopards","have wings"
34,1533,"truthJudge","agree-key","Kangaroos have pouches.","Kangaroos","have pouches"
34,1880,"truthJudge","disagree-key","Ticks dont carry Lyme disease.","Ticks","dont carry Lyme disease"
34,2359,"truthJudge","disagree-key","Kangaroos have spots.","Kangaroos","have spots"
34,2879,"truthJudge","disagree-key","Sharks dont attack swimmers.","Sharks","dont attack swimmers"
34,1651,"truthJudge","agree-key","Leopards have spots.","Leopards","have spots"
34,1694,"truthJudge","disagree-key","Sharks are white.","Sharks","are white"
34,2144,"truthJudge","agree-key","Ducks have wings.","Ducks","have wings"
34,2183,"truthJudge","disagree-key","Mosquitos attack swimmers.","Mosquitos","attack swimmers"
34,4641,"truthJudge","disagree-key","Leopards are juvenile.","Leopards","are juvenile"
34,1766,"truthJudge","disagree-key","Peacocks dont have beautiful feathers.","Peacocks","dont have beautiful feathers"
34,1856,"truthJudge","disagree-key","Robins carry malaria.","Robins","carry malaria"
34,1831,"truthJudge","agree-key","Sharks attack swimmers.","Sharks","attack swimmers"
34,2318,"truthJudge","agree-key","Cardinals are red.","Cardinals","are red"
34,1576,"truthJudge","agree-key","Tigers eat people.","Tigers","eat people"
34,2058,"truthJudge","disagree-key","Mosquitos dont carry malaria.","Mosquitos","dont carry malaria"
34,1332,"truthJudge","disagree-key","Lions lay eggs.","Lions","lay eggs"
34,3496,"truthJudge","disagree-key","Swans are full-grown.","Swans","are full-grown"
34,1696,"truthJudge","agree-key","Robins lay eggs.","Robins","lay eggs"
34,1674,"truthJudge","disagree-key","Sharks have manes.","Sharks","have manes"
35,2849,"truthJudge","agree-key","Mosquitos attack swimmers.","Mosquitos","attack swimmers"
35,1952,"truthJudge","agree-key","Kangaroos have pouches.","Kangaroos","have pouches"
35,1687,"truthJudge","agree-key","Sharks attack swimmers.","Sharks","attack swimmers"
35,7230,"truthJudge","disagree-key","Sharks are white.","Sharks","are white"
35,17064,"truthJudge","disagree-key","Sharks dont attack swimmers.","Sharks","dont attack swimmers"
35,1535,"truthJudge","agree-key","Mosquitos carry malaria.","Mosquitos","carry malaria"
35,2595,"truthJudge","disagree-key","Lions have manes.","Lions","have manes"
35,3031,"truthJudge","disagree-key","Peacocks dont have beautiful feathers.","Peacocks","dont have beautiful feathers"
35,6547,"truthJudge","agree-key","Ducks have wings.","Ducks","have wings"
35,39249,"truthJudge","agree-key","Swans are full-grown.","Swans","are full-grown"
35,9507,"truthJudge","disagree-key","Ticks dont carry Lyme disease.","Ticks","dont carry Lyme disease"
35,23953,"truthJudge","disagree-key","Sharks have manes.","Sharks","have manes"
35,11001,"truthJudge","disagree-key","Tigers dont eat people.","Tigers","dont eat people"
35,1540,"truthJudge","disagree-key","Leopards are juvenile.","Leopards","are juvenile"
35,8947,"truthJudge","disagree-key","Lions lay eggs.","Lions","lay eggs"
35,3403,"truthJudge","agree-key","Ticks carry Lyme disease.","Ticks","carry Lyme disease"
35,14365,"truthJudge","agree-key","Cardinals are red.","Cardinals","are red"
35,1230,"truthJudge","disagree-key","Sharks lay eggs.","Sharks","lay eggs"
35,1790,"truthJudge","agree-key","Tigers eat people.","Tigers","eat people"
35,1077,"truthJudge","agree-key","Leopards have spots.","Leopards","have spots"
35,1097,"truthJudge","disagree-key","Tigers have pouches.","Tigers","have pouches"
35,3986,"truthJudge","disagree-key","Lions are male.","Lions","are male"
35,1922,"truthJudge","agree-key","Peacocks have beautiful feathers.","Peacocks","have beautiful feathers"
35,3816,"truthJudge","disagree-key","Leopards have wings.","Leopards","have wings"
35,16248,"truthJudge","disagree-key","Robins carry malaria.","Robins","carry malaria"
35,2795,"truthJudge","agree-key","Swans are white.","Swans","are white"
35,1779,"truthJudge","disagree-key","Mosquitos dont carry malaria.","Mosquitos","dont carry malaria"
35,1279,"truthJudge","disagree-key","Kangaroos have spots.","Kangaroos","have spots"
35,2545,"truthJudge","agree-key","Robins are female.","Robins","are female"
35,4794,"truthJudge","agree-key","Robins lay eggs.","Robins","lay eggs"
36,2459,"truthJudge","disagree-key","Lions are male.","Lions","are male"
36,2269,"truthJudge","agree-key","Lions have manes.","Lions","have manes"
36,1396,"truthJudge","agree-key","Ducks have wings.","Ducks","have wings"
36,1542,"truthJudge","disagree-key","Sharks have manes.","Sharks","have manes"
36,1598,"truthJudge","disagree-key","Swans are full-grown.","Swans","are full-grown"
36,1172,"truthJudge","disagree-key","Robins are female.","Robins","are female"
36,1029,"truthJudge","agree-key","Robins lay eggs.","Robins","lay eggs"
36,1128,"truthJudge","disagree-key","Swans are white.","Swans","are white"
36,1909,"truthJudge","disagree-key","Peacocks dont have beautiful feathers.","Peacocks","dont have beautiful feathers"
36,1751,"truthJudge","disagree-key","Sharks are white.","Sharks","are white"
36,1365,"truthJudge","disagree-key","Sharks lay eggs.","Sharks","lay eggs"
36,1400,"truthJudge","disagree-key","Tigers dont eat people.","Tigers","dont eat people"
36,1471,"truthJudge","disagree-key","Kangaroos have spots.","Kangaroos","have spots"
36,2347,"truthJudge","disagree-key","Mosquitos dont carry malaria.","Mosquitos","dont carry malaria"
36,1581,"truthJudge","agree-key","Ticks carry Lyme disease.","Ticks","carry Lyme disease"
36,1967,"truthJudge","agree-key","Tigers eat people.","Tigers","eat people"
36,1262,"truthJudge","disagree-key","Tigers have pouches.","Tigers","have pouches"
36,1340,"truthJudge","disagree-key","Leopards have wings.","Leopards","have wings"
36,1023,"truthJudge","disagree-key","Leopards are juvenile.","Leopards","are juvenile"
36,1096,"truthJudge","agree-key","Leopards have spots.","Leopards","have spots"
36,2381,"truthJudge","disagree-key","Sharks attack swimmers.","Sharks","attack swimmers"
36,1559,"truthJudge","agree-key","Kangaroos have pouches.","Kangaroos","have pouches"
36,1376,"truthJudge","agree-key","Mosquitos carry malaria.","Mosquitos","carry malaria"
36,975,"truthJudge","disagree-key","Lions lay eggs.","Lions","lay eggs"
36,1267,"truthJudge","agree-key","Peacocks have beautiful feathers.","Peacocks","have beautiful feathers"
36,2149,"truthJudge","disagree-key","Mosquitos attack swimmers.","Mosquitos","attack swimmers"
36,1262,"truthJudge","disagree-key","Robins carry malaria.","Robins","carry malaria"
36,2105,"truthJudge","agree-key","Sharks dont attack swimmers.","Sharks","dont attack swimmers"
36,1942,"truthJudge","disagree-key","Ticks dont carry Lyme disease.","Ticks","dont carry Lyme disease"
36,1091,"truthJudge","agree-key","Cardinals are red.","Cardinals","are red"
37,1735,"truthJudge","agree-key","Sharks attack swimmers.","Sharks","attack swimmers"
37,1886,"truthJudge","disagree-key","Mosquitos attack swimmers.","Mosquitos","attack swimmers"
37,1214,"truthJudge","disagree-key","Lions lay eggs.","Lions","lay eggs"
37,1195,"truthJudge","disagree-key","Ticks dont carry Lyme disease.","Ticks","dont carry Lyme disease"
37,1481,"truthJudge","disagree-key","Robins carry malaria.","Robins","carry malaria"
37,1204,"truthJudge","disagree-key","Sharks have manes.","Sharks","have manes"
37,947,"truthJudge","agree-key","Lions have manes.","Lions","have manes"
37,883,"truthJudge","agree-key","Robins lay eggs.","Robins","lay eggs"
37,1740,"truthJudge","disagree-key","Tigers dont eat people.","Tigers","dont eat people"
37,1451,"truthJudge","agree-key","Ducks have wings.","Ducks","have wings"
37,881,"truthJudge","agree-key","Cardinals are red.","Cardinals","are red"
37,12484,"truthJudge","disagree-key","Kangaroos have spots.","Kangaroos","have spots"
37,1235,"truthJudge","agree-key","Ticks carry Lyme disease.","Ticks","carry Lyme disease"
37,1291,"truthJudge","disagree-key","Tigers have pouches.","Tigers","have pouches"
37,1242,"truthJudge","agree-key","Swans are white.","Swans","are white"
37,3219,"truthJudge","agree-key","Lions are male.","Lions","are male"
37,1451,"truthJudge","disagree-key","Leopards have wings.","Leopards","have wings"
37,1695,"truthJudge","agree-key","Robins are female.","Robins","are female"
37,2939,"truthJudge","disagree-key","Sharks dont attack swimmers.","Sharks","dont attack swimmers"
37,3139,"truthJudge","agree-key","Swans are full-grown.","Swans","are full-grown"
37,1732,"truthJudge","agree-key","Sharks are white.","Sharks","are white"
37,1233,"truthJudge","agree-key","Mosquitos carry malaria.","Mosquitos","carry malaria"
37,1652,"truthJudge","disagree-key","Mosquitos dont carry malaria.","Mosquitos","dont carry malaria"
37,1290,"truthJudge","disagree-key","Peacocks dont have beautiful feathers.","Peacocks","dont have beautiful feathers"
37,1515,"truthJudge","agree-key","Tigers eat people.","Tigers","eat people"
37,2179,"truthJudge","agree-key","Peacocks have beautiful feathers.","Peacocks","have beautiful feathers"
37,2052,"truthJudge","disagree-key","Leopards are juvenile.","Leopards","are juvenile"
37,1539,"truthJudge","agree-key","Kangaroos have pouches.","Kangaroos","have pouches"
37,4226,"truthJudge","agree-key","Leopards have spots.","Leopards","have spots"
37,18861,"truthJudge","agree-key","Sharks lay eggs.","Sharks","lay eggs"
38,3477,"truthJudge","disagree-key","Lions are male.","Lions","are male"
38,4832,"truthJudge","agree-key","Kangaroos have spots.","Kangaroos","have spots"
38,2899,"truthJudge","agree-key","Leopards have spots.","Leopards","have spots"
38,3089,"truthJudge","agree-key","Tigers eat people.","Tigers","eat people"
38,4236,"truthJudge","disagree-key","Sharks have manes.","Sharks","have manes"
38,22255,"truthJudge","agree-key","Lions have manes.","Lions","have manes"
38,3358,"truthJudge","disagree-key","Sharks dont attack swimmers.","Sharks","dont attack swimmers"
38,3448,"truthJudge","disagree-key","Lions lay eggs.","Lions","lay eggs"
38,3583,"truthJudge","disagree-key","Swans are white.","Swans","are white"
38,1982,"truthJudge","disagree-key","Tigers dont eat people.","Tigers","dont eat people"
38,4473,"truthJudge","agree-key","Robins lay eggs.","Robins","lay eggs"
38,2513,"truthJudge","agree-key","Cardinals are red.","Cardinals","are red"
38,16065,"truthJudge","disagree-key","Ticks dont carry Lyme disease.","Ticks","dont carry Lyme disease"
38,2775,"truthJudge","agree-key","Peacocks have beautiful feathers.","Peacocks","have beautiful feathers"
38,2089,"truthJudge","disagree-key","Swans are full-grown.","Swans","are full-grown"
38,2268,"truthJudge","agree-key","Mosquitos carry malaria.","Mosquitos","carry malaria"
38,6364,"truthJudge","disagree-key","Mosquitos dont carry malaria.","Mosquitos","dont carry malaria"
38,3374,"truthJudge","agree-key","Ticks carry Lyme disease.","Ticks","carry Lyme disease"
38,2452,"truthJudge","disagree-key","Robins carry malaria.","Robins","carry malaria"
38,20758,"truthJudge","agree-key","Kangaroos have pouches.","Kangaroos","have pouches"
38,3474,"truthJudge","agree-key","Ducks have wings.","Ducks","have wings"
38,2806,"truthJudge","agree-key","Sharks attack swimmers.","Sharks","attack swimmers"
38,3512,"truthJudge","disagree-key","Leopards have wings.","Leopards","have wings"
38,2299,"truthJudge","disagree-key","Leopards are juvenile.","Leopards","are juvenile"
38,23540,"truthJudge","agree-key","Sharks lay eggs.","Sharks","lay eggs"
38,3202,"truthJudge","disagree-key","Peacocks dont have beautiful feathers.","Peacocks","dont have beautiful feathers"
38,2280,"truthJudge","disagree-key","Robins are female.","Robins","are female"
38,3617,"truthJudge","disagree-key","Tigers have pouches.","Tigers","have pouches"
38,2718,"truthJudge","disagree-key","Mosquitos attack swimmers.","Mosquitos","attack swimmers"
38,3148,"truthJudge","disagree-key","Sharks are white.","Sharks","are white"
39,2495,"truthJudge","agree-key","Ducks have wings.","Ducks","have wings"
39,2855,"truthJudge","agree-key","Tigers eat people.","Tigers","eat people"
39,2467,"truthJudge","agree-key","Kangaroos have pouches.","Kangaroos","have pouches"
39,1714,"truthJudge","disagree-key","Sharks dont attack swimmers.","Sharks","dont attack swimmers"
39,1146,"truthJudge","agree-key","Lions lay eggs.","Lions","lay eggs"
39,2658,"truthJudge","agree-key","Lions have manes.","Lions","have manes"
39,1843,"truthJudge","disagree-key","Ticks dont carry Lyme disease.","Ticks","dont carry Lyme disease"
39,3284,"truthJudge","disagree-key","Mosquitos attack swimmers.","Mosquitos","attack swimmers"
39,2658,"truthJudge","agree-key","Leopards have spots.","Leopards","have spots"
39,1331,"truthJudge","agree-key","Robins lay eggs.","Robins","lay eggs"
39,1412,"truthJudge","agree-key","Mosquitos carry malaria.","Mosquitos","carry malaria"
39,1562,"truthJudge","disagree-key","Sharks have manes.","Sharks","have manes"
39,2186,"truthJudge","agree-key","Lions are male.","Lions","are male"
