"workerid","rt","trial_type","story","trial_num","target","experimentResults","missing","n_data","condition","label","frequency","treatment","query","distribution","category","response","unit"
0,17788,"causals","animal make sleepy",0,"makes CATEGORY sleepy","[100, 99, 100, 98, u'?', 100, 100, 99, 99, 97, 99]",4,10,"prior","M",-99,"herb","make the animals sleepy","common_deterministic","kweps",0.57,"animals"
0,17788,"causals","animal make sleepy",0,"makes CATEGORY sleepy","[100, 99, 100, 98, u'?', 100, 100, 99, 99, 97, 99]",4,10,"prior","N",-99,"herb","make the animals sleepy","common_deterministic","kweps",0.49,"animals"
0,17788,"causals","animal make sleepy",0,"makes CATEGORY sleepy","[100, 99, 100, 98, u'?', 100, 100, 99, 99, 97, 99]",4,10,"prior","P",-99,"herb","make the animals sleepy","common_deterministic","kweps",0.45,"animals"
0,17788,"causals","animal make sleepy",0,"makes CATEGORY sleepy","[100, 99, 100, 98, u'?', 100, 100, 99, 99, 97, 99]",4,10,"prior","Q",-99,"herb","make the animals sleepy","common_deterministic","kweps",0.72,"animals"
0,17788,"causals","animal make sleepy",0,"makes CATEGORY sleepy","[100, 99, 100, 98, u'?', 100, 100, 99, 99, 97, 99]",4,10,"prior","R",-99,"herb","make the animals sleepy","common_deterministic","kweps",0.54,"animals"
1,53324,"causals","animal make sleepy",0,"makes CATEGORY sleepy","[100, 99, 100, u'?', 100, 98, 100, 100, 98, 98, 100]",3,10,"prior","M",-99,"herb","make the animals sleepy","common_deterministic","kweps",0.98,"animals"
1,53324,"causals","animal make sleepy",0,"makes CATEGORY sleepy","[100, 99, 100, u'?', 100, 98, 100, 100, 98, 98, 100]",3,10,"prior","N",-99,"herb","make the animals sleepy","common_deterministic","kweps",1,"animals"
1,53324,"causals","animal make sleepy",0,"makes CATEGORY sleepy","[100, 99, 100, u'?', 100, 98, 100, 100, 98, 98, 100]",3,10,"prior","P",-99,"herb","make the animals sleepy","common_deterministic","kweps",0.99,"animals"
1,53324,"causals","animal make sleepy",0,"makes CATEGORY sleepy","[100, 99, 100, u'?', 100, 98, 100, 100, 98, 98, 100]",3,10,"prior","Q",-99,"herb","make the animals sleepy","common_deterministic","kweps",1,"animals"
1,53324,"causals","animal make sleepy",0,"makes CATEGORY sleepy","[100, 99, 100, u'?', 100, 98, 100, 100, 98, 98, 100]",3,10,"prior","R",-99,"herb","make the animals sleepy","common_deterministic","kweps",0.98,"animals"
2,36730,"causals","plant grow tall",0,"makes CATEGORY grow tall","[17, u'?', 19, 19, 20, 18, 18, 20, 18, 21, 20]",1,10,"prior","M",-99,"fertilizer","make the plants grow tall","common_weak","wugs",0.22,"plants"
2,36730,"causals","plant grow tall",0,"makes CATEGORY grow tall","[17, u'?', 19, 19, 20, 18, 18, 20, 18, 21, 20]",1,10,"prior","N",-99,"fertilizer","make the plants grow tall","common_weak","wugs",0.22,"plants"
2,36730,"causals","plant grow tall",0,"makes CATEGORY grow tall","[17, u'?', 19, 19, 20, 18, 18, 20, 18, 21, 20]",1,10,"prior","P",-99,"fertilizer","make the plants grow tall","common_weak","wugs",0.22,"plants"
2,36730,"causals","plant grow tall",0,"makes CATEGORY grow tall","[17, u'?', 19, 19, 20, 18, 18, 20, 18, 21, 20]",1,10,"prior","Q",-99,"fertilizer","make the plants grow tall","common_weak","wugs",0.24,"plants"
2,36730,"causals","plant grow tall",0,"makes CATEGORY grow tall","[17, u'?', 19, 19, 20, 18, 18, 20, 18, 21, 20]",1,10,"prior","R",-99,"fertilizer","make the plants grow tall","common_weak","wugs",0.24,"plants"
3,88545,"causals","plant grow tall",0,"makes CATEGORY grow tall","[1, 0, 96, 1, u'?', 0, 1, 0, 100, 100, 0]",4,10,"prior","M",-99,"fertilizer","make the plants grow tall","rare_deterministic","ackles",0,"plants"
3,88545,"causals","plant grow tall",0,"makes CATEGORY grow tall","[1, 0, 96, 1, u'?', 0, 1, 0, 100, 100, 0]",4,10,"prior","N",-99,"fertilizer","make the plants grow tall","rare_deterministic","ackles",0,"plants"
3,88545,"causals","plant grow tall",0,"makes CATEGORY grow tall","[1, 0, 96, 1, u'?', 0, 1, 0, 100, 100, 0]",4,10,"prior","P",-99,"fertilizer","make the plants grow tall","rare_deterministic","ackles",0,"plants"
3,88545,"causals","plant grow tall",0,"makes CATEGORY grow tall","[1, 0, 96, 1, u'?', 0, 1, 0, 100, 100, 0]",4,10,"prior","Q",-99,"fertilizer","make the plants grow tall","rare_deterministic","ackles",0,"plants"
3,88545,"causals","plant grow tall",0,"makes CATEGORY grow tall","[1, 0, 96, 1, u'?', 0, 1, 0, 100, 100, 0]",4,10,"prior","R",-99,"fertilizer","make the plants grow tall","rare_deterministic","ackles",0,"plants"
4,34169,"causals","plant grow tall",0,"makes CATEGORY grow tall","[99, 98, 100, 99, 100, 97, u'?', 99, 100, 100, 100]",6,10,"prior","M",-99,"fertilizer","make the plants grow tall","common_deterministic","elleps",0.99,"plants"
4,34169,"causals","plant grow tall",0,"makes CATEGORY grow tall","[99, 98, 100, 99, 100, 97, u'?', 99, 100, 100, 100]",6,10,"prior","N",-99,"fertilizer","make the plants grow tall","common_deterministic","elleps",0.99,"plants"
4,34169,"causals","plant grow tall",0,"makes CATEGORY grow tall","[99, 98, 100, 99, 100, 97, u'?', 99, 100, 100, 100]",6,10,"prior","P",-99,"fertilizer","make the plants grow tall","common_deterministic","elleps",0.97,"plants"
4,34169,"causals","plant grow tall",0,"makes CATEGORY grow tall","[99, 98, 100, 99, 100, 97, u'?', 99, 100, 100, 100]",6,10,"prior","Q",-99,"fertilizer","make the plants grow tall","common_deterministic","elleps",0.96,"plants"
4,34169,"causals","plant grow tall",0,"makes CATEGORY grow tall","[99, 98, 100, 99, 100, 97, u'?', 99, 100, 100, 100]",6,10,"prior","R",-99,"fertilizer","make the plants grow tall","common_deterministic","elleps",0.96,"plants"
5,54502,"causals","animal make sleepy",0,"makes CATEGORY sleepy","[0, 0, 2, u'?', 0, 20, 21, 0, 1, 0, 18]",3,10,"prior","M",-99,"herb","make the animals sleepy","rare_weak","grinks",0,"animals"
5,54502,"causals","animal make sleepy",0,"makes CATEGORY sleepy","[0, 0, 2, u'?', 0, 20, 21, 0, 1, 0, 18]",3,10,"prior","N",-99,"herb","make the animals sleepy","rare_weak","grinks",0,"animals"
5,54502,"causals","animal make sleepy",0,"makes CATEGORY sleepy","[0, 0, 2, u'?', 0, 20, 21, 0, 1, 0, 18]",3,10,"prior","P",-99,"herb","make the animals sleepy","rare_weak","grinks",0.04,"animals"
5,54502,"causals","animal make sleepy",0,"makes CATEGORY sleepy","[0, 0, 2, u'?', 0, 20, 21, 0, 1, 0, 18]",3,10,"prior","Q",-99,"herb","make the animals sleepy","rare_weak","grinks",0.05,"animals"
5,54502,"causals","animal make sleepy",0,"makes CATEGORY sleepy","[0, 0, 2, u'?', 0, 20, 21, 0, 1, 0, 18]",3,10,"prior","R",-99,"herb","make the animals sleepy","rare_weak","grinks",0,"animals"
6,40100,"causals","animal make sleepy",0,"makes CATEGORY sleepy","[100, 99, 99, u'?', 98, 100, 100, 99, 99, 99, 100]",3,10,"prior","M",-99,"herb","make the animals sleepy","common_deterministic","trufts",1,"animals"
6,40100,"causals","animal make sleepy",0,"makes CATEGORY sleepy","[100, 99, 99, u'?', 98, 100, 100, 99, 99, 99, 100]",3,10,"prior","N",-99,"herb","make the animals sleepy","common_deterministic","trufts",0.92,"animals"
6,40100,"causals","animal make sleepy",0,"makes CATEGORY sleepy","[100, 99, 99, u'?', 98, 100, 100, 99, 99, 99, 100]",3,10,"prior","P",-99,"herb","make the animals sleepy","common_deterministic","trufts",0.97,"animals"
6,40100,"causals","animal make sleepy",0,"makes CATEGORY sleepy","[100, 99, 99, u'?', 98, 100, 100, 99, 99, 99, 100]",3,10,"prior","Q",-99,"herb","make the animals sleepy","common_deterministic","trufts",0.95,"animals"
6,40100,"causals","animal make sleepy",0,"makes CATEGORY sleepy","[100, 99, 99, u'?', 98, 100, 100, 99, 99, 99, 100]",3,10,"prior","R",-99,"herb","make the animals sleepy","common_deterministic","trufts",0.95,"animals"
7,129795,"causals","plant grow tall",0,"makes CATEGORY grow tall","[0, 1, 100, 2, 0, 2, u'?', 0, 100, 0, 99]",6,10,"prior","M",-99,"fertilizer","make the plants grow tall","rare_deterministic","wugs",0.01,"plants"
7,129795,"causals","plant grow tall",0,"makes CATEGORY grow tall","[0, 1, 100, 2, 0, 2, u'?', 0, 100, 0, 99]",6,10,"prior","N",-99,"fertilizer","make the plants grow tall","rare_deterministic","wugs",0.03,"plants"
7,129795,"causals","plant grow tall",0,"makes CATEGORY grow tall","[0, 1, 100, 2, 0, 2, u'?', 0, 100, 0, 99]",6,10,"prior","P",-99,"fertilizer","make the plants grow tall","rare_deterministic","wugs",1,"plants"
7,129795,"causals","plant grow tall",0,"makes CATEGORY grow tall","[0, 1, 100, 2, 0, 2, u'?', 0, 100, 0, 99]",6,10,"prior","Q",-99,"fertilizer","make the plants grow tall","rare_deterministic","wugs",0.04,"plants"
7,129795,"causals","plant grow tall",0,"makes CATEGORY grow tall","[0, 1, 100, 2, 0, 2, u'?', 0, 100, 0, 99]",6,10,"prior","R",-99,"fertilizer","make the plants grow tall","rare_deterministic","wugs",0,"plants"
8,27708,"causals","animal make sleepy",0,"makes CATEGORY sleepy","[23, 22, u'?', 20, 21, 18, 20, 20, 20, 19, 20]",2,10,"prior","M",-99,"herb","make the animals sleepy","common_weak","plovs",0.13,"animals"
8,27708,"causals","animal make sleepy",0,"makes CATEGORY sleepy","[23, 22, u'?', 20, 21, 18, 20, 20, 20, 19, 20]",2,10,"prior","N",-99,"herb","make the animals sleepy","common_weak","plovs",0.11,"animals"
8,27708,"causals","animal make sleepy",0,"makes CATEGORY sleepy","[23, 22, u'?', 20, 21, 18, 20, 20, 20, 19, 20]",2,10,"prior","P",-99,"herb","make the animals sleepy","common_weak","plovs",0.1,"animals"
8,27708,"causals","animal make sleepy",0,"makes CATEGORY sleepy","[23, 22, u'?', 20, 21, 18, 20, 20, 20, 19, 20]",2,10,"prior","Q",-99,"herb","make the animals sleepy","common_weak","plovs",0.09,"animals"
8,27708,"causals","animal make sleepy",0,"makes CATEGORY sleepy","[23, 22, u'?', 20, 21, 18, 20, 20, 20, 19, 20]",2,10,"prior","R",-99,"herb","make the animals sleepy","common_weak","plovs",0.14,"animals"
9,9030,"causals","animal make sleepy",0,"makes CATEGORY sleepy","[100, 100, 100, 99, 100, u'?', 100, 100, 100, 100, 100]",5,10,"prior","M",-99,"herb","make the animals sleepy","common_deterministic","grinks",0.33,"animals"
9,9030,"causals","animal make sleepy",0,"makes CATEGORY sleepy","[100, 100, 100, 99, 100, u'?', 100, 100, 100, 100, 100]",5,10,"prior","N",-99,"herb","make the animals sleepy","common_deterministic","grinks",0.29,"animals"
9,9030,"causals","animal make sleepy",0,"makes CATEGORY sleepy","[100, 100, 100, 99, 100, u'?', 100, 100, 100, 100, 100]",5,10,"prior","P",-99,"herb","make the animals sleepy","common_deterministic","grinks",0.26,"animals"
9,9030,"causals","animal make sleepy",0,"makes CATEGORY sleepy","[100, 100, 100, 99, 100, u'?', 100, 100, 100, 100, 100]",5,10,"prior","Q",-99,"herb","make the animals sleepy","common_deterministic","grinks",0.23,"animals"
9,9030,"causals","animal make sleepy",0,"makes CATEGORY sleepy","[100, 100, 100, 99, 100, u'?', 100, 100, 100, 100, 100]",5,10,"prior","R",-99,"herb","make the animals sleepy","common_deterministic","grinks",0.18,"animals"
10,59190,"causals","animal make sleepy",0,"makes CATEGORY sleepy","[98, 0, 1, 0, 0, 98, 0, 0, u'?', 100, 1]",8,10,"prior","M",-99,"herb","make the animals sleepy","rare_deterministic","pangolins",0.01,"animals"
10,59190,"causals","animal make sleepy",0,"makes CATEGORY sleepy","[98, 0, 1, 0, 0, 98, 0, 0, u'?', 100, 1]",8,10,"prior","N",-99,"herb","make the animals sleepy","rare_deterministic","pangolins",0.01,"animals"
10,59190,"causals","animal make sleepy",0,"makes CATEGORY sleepy","[98, 0, 1, 0, 0, 98, 0, 0, u'?', 100, 1]",8,10,"prior","P",-99,"herb","make the animals sleepy","rare_deterministic","pangolins",0.01,"animals"
10,59190,"causals","animal make sleepy",0,"makes CATEGORY sleepy","[98, 0, 1, 0, 0, 98, 0, 0, u'?', 100, 1]",8,10,"prior","Q",-99,"herb","make the animals sleepy","rare_deterministic","pangolins",0.99,"animals"
10,59190,"causals","animal make sleepy",0,"makes CATEGORY sleepy","[98, 0, 1, 0, 0, 98, 0, 0, u'?', 100, 1]",8,10,"prior","R",-99,"herb","make the animals sleepy","rare_deterministic","pangolins",0,"animals"
11,53517,"causals","plant grow tall",0,"makes CATEGORY grow tall","[21, 0, 0, 0, 18, 0, u'?', 2, 19, 0, 1]",6,10,"prior","M",-99,"fertilizer","make the plants grow tall","rare_weak","crullets",0,"plants"
11,53517,"causals","plant grow tall",0,"makes CATEGORY grow tall","[21, 0, 0, 0, 18, 0, u'?', 2, 19, 0, 1]",6,10,"prior","N",-99,"fertilizer","make the plants grow tall","rare_weak","crullets",0.09,"plants"
11,53517,"causals","plant grow tall",0,"makes CATEGORY grow tall","[21, 0, 0, 0, 18, 0, u'?', 2, 19, 0, 1]",6,10,"prior","P",-99,"fertilizer","make the plants grow tall","rare_weak","crullets",0,"plants"
11,53517,"causals","plant grow tall",0,"makes CATEGORY grow tall","[21, 0, 0, 0, 18, 0, u'?', 2, 19, 0, 1]",6,10,"prior","Q",-99,"fertilizer","make the plants grow tall","rare_weak","crullets",0.01,"plants"
11,53517,"causals","plant grow tall",0,"makes CATEGORY grow tall","[21, 0, 0, 0, 18, 0, u'?', 2, 19, 0, 1]",6,10,"prior","R",-99,"fertilizer","make the plants grow tall","rare_weak","crullets",0.06,"plants"
12,45663,"causals","plant grow tall",0,"makes CATEGORY grow tall","[1, 21, 20, 0, u'?', 0, 19, 0, 0, 1, 0]",4,10,"prior","M",-99,"fertilizer","make the plants grow tall","rare_weak","lorches",0.07,"plants"
12,45663,"causals","plant grow tall",0,"makes CATEGORY grow tall","[1, 21, 20, 0, u'?', 0, 19, 0, 0, 1, 0]",4,10,"prior","N",-99,"fertilizer","make the plants grow tall","rare_weak","lorches",0.12,"plants"
12,45663,"causals","plant grow tall",0,"makes CATEGORY grow tall","[1, 21, 20, 0, u'?', 0, 19, 0, 0, 1, 0]",4,10,"prior","P",-99,"fertilizer","make the plants grow tall","rare_weak","lorches",0.11,"plants"
12,45663,"causals","plant grow tall",0,"makes CATEGORY grow tall","[1, 21, 20, 0, u'?', 0, 19, 0, 0, 1, 0]",4,10,"prior","Q",-99,"fertilizer","make the plants grow tall","rare_weak","lorches",0.11,"plants"
12,45663,"causals","plant grow tall",0,"makes CATEGORY grow tall","[1, 21, 20, 0, u'?', 0, 19, 0, 0, 1, 0]",4,10,"prior","R",-99,"fertilizer","make the plants grow tall","rare_weak","lorches",0.09,"plants"
13,86233,"causals","animal make sleepy",0,"makes CATEGORY sleepy","[98, 100, 100, 100, u'?', 100, 100, 100, 100, 100, 100]",4,10,"prior","M",-99,"herb","make the animals sleepy","common_deterministic","morseths",1,"animals"
13,86233,"causals","animal make sleepy",0,"makes CATEGORY sleepy","[98, 100, 100, 100, u'?', 100, 100, 100, 100, 100, 100]",4,10,"prior","N",-99,"herb","make the animals sleepy","common_deterministic","morseths",1,"animals"
13,86233,"causals","animal make sleepy",0,"makes CATEGORY sleepy","[98, 100, 100, 100, u'?', 100, 100, 100, 100, 100, 100]",4,10,"prior","P",-99,"herb","make the animals sleepy","common_deterministic","morseths",0.96,"animals"
13,86233,"causals","animal make sleepy",0,"makes CATEGORY sleepy","[98, 100, 100, 100, u'?', 100, 100, 100, 100, 100, 100]",4,10,"prior","Q",-99,"herb","make the animals sleepy","common_deterministic","morseths",1,"animals"
13,86233,"causals","animal make sleepy",0,"makes CATEGORY sleepy","[98, 100, 100, 100, u'?', 100, 100, 100, 100, 100, 100]",4,10,"prior","R",-99,"herb","make the animals sleepy","common_deterministic","morseths",1,"animals"
14,38630,"causals","plant grow tall",0,"makes CATEGORY grow tall","[1, 100, 99, 1, 0, 1, 0, u'?', 2, 0, 99]",7,10,"prior","M",-99,"fertilizer","make the plants grow tall","rare_deterministic","thups",0.07,"plants"
14,38630,"causals","plant grow tall",0,"makes CATEGORY grow tall","[1, 100, 99, 1, 0, 1, 0, u'?', 2, 0, 99]",7,10,"prior","N",-99,"fertilizer","make the plants grow tall","rare_deterministic","thups",0.07,"plants"
14,38630,"causals","plant grow tall",0,"makes CATEGORY grow tall","[1, 100, 99, 1, 0, 1, 0, u'?', 2, 0, 99]",7,10,"prior","P",-99,"fertilizer","make the plants grow tall","rare_deterministic","thups",0.14,"plants"
14,38630,"causals","plant grow tall",0,"makes CATEGORY grow tall","[1, 100, 99, 1, 0, 1, 0, u'?', 2, 0, 99]",7,10,"prior","Q",-99,"fertilizer","make the plants grow tall","rare_deterministic","thups",0.11,"plants"
14,38630,"causals","plant grow tall",0,"makes CATEGORY grow tall","[1, 100, 99, 1, 0, 1, 0, u'?', 2, 0, 99]",7,10,"prior","R",-99,"fertilizer","make the plants grow tall","rare_deterministic","thups",0.5,"plants"
15,61673,"causals","plant grow tall",0,"makes CATEGORY grow tall","[0, 18, 0, 17, 0, 0, u'?', 20, 1, 0, 0]",6,10,"prior","M",-99,"fertilizer","make the plants grow tall","rare_weak","glippets",0,"plants"
15,61673,"causals","plant grow tall",0,"makes CATEGORY grow tall","[0, 18, 0, 17, 0, 0, u'?', 20, 1, 0, 0]",6,10,"prior","N",-99,"fertilizer","make the plants grow tall","rare_weak","glippets",0,"plants"
15,61673,"causals","plant grow tall",0,"makes CATEGORY grow tall","[0, 18, 0, 17, 0, 0, u'?', 20, 1, 0, 0]",6,10,"prior","P",-99,"fertilizer","make the plants grow tall","rare_weak","glippets",0,"plants"
15,61673,"causals","plant grow tall",0,"makes CATEGORY grow tall","[0, 18, 0, 17, 0, 0, u'?', 20, 1, 0, 0]",6,10,"prior","Q",-99,"fertilizer","make the plants grow tall","rare_weak","glippets",0,"plants"
15,61673,"causals","plant grow tall",0,"makes CATEGORY grow tall","[0, 18, 0, 17, 0, 0, u'?', 20, 1, 0, 0]",6,10,"prior","R",-99,"fertilizer","make the plants grow tall","rare_weak","glippets",0,"plants"
16,55081,"causals","animal make sleepy",0,"makes CATEGORY sleepy","[99, 100, 99, 100, 99, 99, 100, 100, u'?', 100, 97]",8,10,"prior","M",-99,"herb","make the animals sleepy","common_deterministic","taifels",1,"animals"
16,55081,"causals","animal make sleepy",0,"makes CATEGORY sleepy","[99, 100, 99, 100, 99, 99, 100, 100, u'?', 100, 97]",8,10,"prior","N",-99,"herb","make the animals sleepy","common_deterministic","taifels",1,"animals"
16,55081,"causals","animal make sleepy",0,"makes CATEGORY sleepy","[99, 100, 99, 100, 99, 99, 100, 100, u'?', 100, 97]",8,10,"prior","P",-99,"herb","make the animals sleepy","common_deterministic","taifels",1,"animals"
16,55081,"causals","animal make sleepy",0,"makes CATEGORY sleepy","[99, 100, 99, 100, 99, 99, 100, 100, u'?', 100, 97]",8,10,"prior","Q",-99,"herb","make the animals sleepy","common_deterministic","taifels",1,"animals"
16,55081,"causals","animal make sleepy",0,"makes CATEGORY sleepy","[99, 100, 99, 100, 99, 99, 100, 100, u'?', 100, 97]",8,10,"prior","R",-99,"herb","make the animals sleepy","common_deterministic","taifels",1,"animals"
17,32389,"causals","animal make sleepy",0,"makes CATEGORY sleepy","[17, u'?', 19, 21, 20, 20, 22, 19, 19, 17, 23]",1,10,"prior","M",-99,"herb","make the animals sleepy","common_weak","trufts",0.48,"animals"
17,32389,"causals","animal make sleepy",0,"makes CATEGORY sleepy","[17, u'?', 19, 21, 20, 20, 22, 19, 19, 17, 23]",1,10,"prior","N",-99,"herb","make the animals sleepy","common_weak","trufts",0.5,"animals"
17,32389,"causals","animal make sleepy",0,"makes CATEGORY sleepy","[17, u'?', 19, 21, 20, 20, 22, 19, 19, 17, 23]",1,10,"prior","P",-99,"herb","make the animals sleepy","common_weak","trufts",0.52,"animals"
17,32389,"causals","animal make sleepy",0,"makes CATEGORY sleepy","[17, u'?', 19, 21, 20, 20, 22, 19, 19, 17, 23]",1,10,"prior","Q",-99,"herb","make the animals sleepy","common_weak","trufts",0.43,"animals"
17,32389,"causals","animal make sleepy",0,"makes CATEGORY sleepy","[17, u'?', 19, 21, 20, 20, 22, 19, 19, 17, 23]",1,10,"prior","R",-99,"herb","make the animals sleepy","common_weak","trufts",0.39,"animals"
18,41382,"causals","animal make sleepy",0,"makes CATEGORY sleepy","[0, 20, 0, 0, 1, u'?', 20, 0, 21, 0, 0]",5,10,"prior","M",-99,"herb","make the animals sleepy","rare_weak","glippets",0.01,"animals"
18,41382,"causals","animal make sleepy",0,"makes CATEGORY sleepy","[0, 20, 0, 0, 1, u'?', 20, 0, 21, 0, 0]",5,10,"prior","N",-99,"herb","make the animals sleepy","rare_weak","glippets",0.01,"animals"
18,41382,"causals","animal make sleepy",0,"makes CATEGORY sleepy","[0, 20, 0, 0, 1, u'?', 20, 0, 21, 0, 0]",5,10,"prior","P",-99,"herb","make the animals sleepy","rare_weak","glippets",0.12,"animals"
18,41382,"causals","animal make sleepy",0,"makes CATEGORY sleepy","[0, 20, 0, 0, 1, u'?', 20, 0, 21, 0, 0]",5,10,"prior","Q",-99,"herb","make the animals sleepy","rare_weak","glippets",0.01,"animals"
18,41382,"causals","animal make sleepy",0,"makes CATEGORY sleepy","[0, 20, 0, 0, 1, u'?', 20, 0, 21, 0, 0]",5,10,"prior","R",-99,"herb","make the animals sleepy","rare_weak","glippets",0.01,"animals"
19,60510,"causals","plant grow tall",0,"makes CATEGORY grow tall","[1, 100, 0, 0, 98, 100, 0, 1, u'?', 0, 1]",8,10,"prior","M",-99,"fertilizer","make the plants grow tall","rare_deterministic","elleps",0,"plants"
19,60510,"causals","plant grow tall",0,"makes CATEGORY grow tall","[1, 100, 0, 0, 98, 100, 0, 1, u'?', 0, 1]",8,10,"prior","N",-99,"fertilizer","make the plants grow tall","rare_deterministic","elleps",0.02,"plants"
19,60510,"causals","plant grow tall",0,"makes CATEGORY grow tall","[1, 100, 0, 0, 98, 100, 0, 1, u'?', 0, 1]",8,10,"prior","P",-99,"fertilizer","make the plants grow tall","rare_deterministic","elleps",1,"plants"
19,60510,"causals","plant grow tall",0,"makes CATEGORY grow tall","[1, 100, 0, 0, 98, 100, 0, 1, u'?', 0, 1]",8,10,"prior","Q",-99,"fertilizer","make the plants grow tall","rare_deterministic","elleps",0,"plants"
19,60510,"causals","plant grow tall",0,"makes CATEGORY grow tall","[1, 100, 0, 0, 98, 100, 0, 1, u'?', 0, 1]",8,10,"prior","R",-99,"fertilizer","make the plants grow tall","rare_deterministic","elleps",0.98,"plants"
20,99116,"causals","plant grow tall",0,"makes CATEGORY grow tall","[0, 100, 0, 100, 0, 98, 0, u'?', 0, 0, 0]",7,10,"prior","M",-99,"fertilizer","make the plants grow tall","rare_deterministic","frams",0,"plants"
20,99116,"causals","plant grow tall",0,"makes CATEGORY grow tall","[0, 100, 0, 100, 0, 98, 0, u'?', 0, 0, 0]",7,10,"prior","N",-99,"fertilizer","make the plants grow tall","rare_deterministic","frams",0.95,"plants"
20,99116,"causals","plant grow tall",0,"makes CATEGORY grow tall","[0, 100, 0, 100, 0, 98, 0, u'?', 0, 0, 0]",7,10,"prior","P",-99,"fertilizer","make the plants grow tall","rare_deterministic","frams",0.02,"plants"
20,99116,"causals","plant grow tall",0,"makes CATEGORY grow tall","[0, 100, 0, 100, 0, 98, 0, u'?', 0, 0, 0]",7,10,"prior","Q",-99,"fertilizer","make the plants grow tall","rare_deterministic","frams",0.02,"plants"
20,99116,"causals","plant grow tall",0,"makes CATEGORY grow tall","[0, 100, 0, 100, 0, 98, 0, u'?', 0, 0, 0]",7,10,"prior","R",-99,"fertilizer","make the plants grow tall","rare_deterministic","frams",0.97,"plants"
21,74135,"causals","plant grow tall",0,"makes CATEGORY grow tall","[0, 0, 0, 19, 20, 1, 1, u'?', 0, 20, 1]",7,10,"prior","M",-99,"fertilizer","make the plants grow tall","rare_weak","krivels",0.3,"plants"
21,74135,"causals","plant grow tall",0,"makes CATEGORY grow tall","[0, 0, 0, 19, 20, 1, 1, u'?', 0, 20, 1]",7,10,"prior","N",-99,"fertilizer","make the plants grow tall","rare_weak","krivels",0,"plants"
21,74135,"causals","plant grow tall",0,"makes CATEGORY grow tall","[0, 0, 0, 19, 20, 1, 1, u'?', 0, 20, 1]",7,10,"prior","P",-99,"fertilizer","make the plants grow tall","rare_weak","krivels",0,"plants"
21,74135,"causals","plant grow tall",0,"makes CATEGORY grow tall","[0, 0, 0, 19, 20, 1, 1, u'?', 0, 20, 1]",7,10,"prior","Q",-99,"fertilizer","make the plants grow tall","rare_weak","krivels",0.21,"plants"
21,74135,"causals","plant grow tall",0,"makes CATEGORY grow tall","[0, 0, 0, 19, 20, 1, 1, u'?', 0, 20, 1]",7,10,"prior","R",-99,"fertilizer","make the plants grow tall","rare_weak","krivels",0.25,"plants"
22,34282,"causals","plant grow tall",0,"makes CATEGORY grow tall","[20, 0, u'?', 20, 0, 0, 0, 0, 0, 1, 17]",2,10,"prior","M",-99,"fertilizer","make the plants grow tall","rare_weak","plovs",0,"plants"
22,34282,"causals","plant grow tall",0,"makes CATEGORY grow tall","[20, 0, u'?', 20, 0, 0, 0, 0, 0, 1, 17]",2,10,"prior","N",-99,"fertilizer","make the plants grow tall","rare_weak","plovs",0,"plants"
22,34282,"causals","plant grow tall",0,"makes CATEGORY grow tall","[20, 0, u'?', 20, 0, 0, 0, 0, 0, 1, 17]",2,10,"prior","P",-99,"fertilizer","make the plants grow tall","rare_weak","plovs",0.16,"plants"
22,34282,"causals","plant grow tall",0,"makes CATEGORY grow tall","[20, 0, u'?', 20, 0, 0, 0, 0, 0, 1, 17]",2,10,"prior","Q",-99,"fertilizer","make the plants grow tall","rare_weak","plovs",0,"plants"
22,34282,"causals","plant grow tall",0,"makes CATEGORY grow tall","[20, 0, u'?', 20, 0, 0, 0, 0, 0, 1, 17]",2,10,"prior","R",-99,"fertilizer","make the plants grow tall","rare_weak","plovs",0.03,"plants"
23,113132,"causals","animal make sleepy",0,"makes CATEGORY sleepy","[20, 2, u'?', 2, 0, 3, 1, 21, 0, 0, 19]",2,10,"prior","M",-99,"herb","make the animals sleepy","rare_weak","thups",0.09,"animals"
23,113132,"causals","animal make sleepy",0,"makes CATEGORY sleepy","[20, 2, u'?', 2, 0, 3, 1, 21, 0, 0, 19]",2,10,"prior","N",-99,"herb","make the animals sleepy","rare_weak","thups",0.16,"animals"
23,113132,"causals","animal make sleepy",0,"makes CATEGORY sleepy","[20, 2, u'?', 2, 0, 3, 1, 21, 0, 0, 19]",2,10,"prior","P",-99,"herb","make the animals sleepy","rare_weak","thups",0.05,"animals"
23,113132,"causals","animal make sleepy",0,"makes CATEGORY sleepy","[20, 2, u'?', 2, 0, 3, 1, 21, 0, 0, 19]",2,10,"prior","Q",-99,"herb","make the animals sleepy","rare_weak","thups",0.06,"animals"
23,113132,"causals","animal make sleepy",0,"makes CATEGORY sleepy","[20, 2, u'?', 2, 0, 3, 1, 21, 0, 0, 19]",2,10,"prior","R",-99,"herb","make the animals sleepy","rare_weak","thups",0.07,"animals"
24,87020,"causals","animal make sleepy",0,"makes CATEGORY sleepy","[0, 0, 0, 1, 0, 1, 20, 1, u'?', 21, 17]",8,10,"prior","M",-99,"herb","make the animals sleepy","rare_weak","trufts",0,"animals"
24,87020,"causals","animal make sleepy",0,"makes CATEGORY sleepy","[0, 0, 0, 1, 0, 1, 20, 1, u'?', 21, 17]",8,10,"prior","N",-99,"herb","make the animals sleepy","rare_weak","trufts",0.09,"animals"
24,87020,"causals","animal make sleepy",0,"makes CATEGORY sleepy","[0, 0, 0, 1, 0, 1, 20, 1, u'?', 21, 17]",8,10,"prior","P",-99,"herb","make the animals sleepy","rare_weak","trufts",0.03,"animals"
24,87020,"causals","animal make sleepy",0,"makes CATEGORY sleepy","[0, 0, 0, 1, 0, 1, 20, 1, u'?', 21, 17]",8,10,"prior","Q",-99,"herb","make the animals sleepy","rare_weak","trufts",0.03,"animals"
24,87020,"causals","animal make sleepy",0,"makes CATEGORY sleepy","[0, 0, 0, 1, 0, 1, 20, 1, u'?', 21, 17]",8,10,"prior","R",-99,"herb","make the animals sleepy","rare_weak","trufts",0.2,"animals"
25,159526,"causals","plant grow tall",0,"makes CATEGORY grow tall","[0, 100, 0, 0, 2, 0, 0, 100, u'?', 100, 0]",8,10,"prior","M",-99,"fertilizer","make the plants grow tall","rare_deterministic","feps",0.96,"plants"
25,159526,"causals","plant grow tall",0,"makes CATEGORY grow tall","[0, 100, 0, 0, 2, 0, 0, 100, u'?', 100, 0]",8,10,"prior","N",-99,"fertilizer","make the plants grow tall","rare_deterministic","feps",0.01,"plants"
25,159526,"causals","plant grow tall",0,"makes CATEGORY grow tall","[0, 100, 0, 0, 2, 0, 0, 100, u'?', 100, 0]",8,10,"prior","P",-99,"fertilizer","make the plants grow tall","rare_deterministic","feps",0.04,"plants"
25,159526,"causals","plant grow tall",0,"makes CATEGORY grow tall","[0, 100, 0, 0, 2, 0, 0, 100, u'?', 100, 0]",8,10,"prior","Q",-99,"fertilizer","make the plants grow tall","rare_deterministic","feps",0.02,"plants"
25,159526,"causals","plant grow tall",0,"makes CATEGORY grow tall","[0, 100, 0, 0, 2, 0, 0, 100, u'?', 100, 0]",8,10,"prior","R",-99,"fertilizer","make the plants grow tall","rare_deterministic","feps",0.96,"plants"
26,101651,"causals","plant grow tall",0,"makes CATEGORY grow tall","[19, 21, u'?', 21, 21, 20, 20, 22, 22, 22, 21]",2,10,"prior","M",-99,"fertilizer","make the plants grow tall","common_weak","pangolins",0.28,"plants"
26,101651,"causals","plant grow tall",0,"makes CATEGORY grow tall","[19, 21, u'?', 21, 21, 20, 20, 22, 22, 22, 21]",2,10,"prior","N",-99,"fertilizer","make the plants grow tall","common_weak","pangolins",0.28,"plants"
26,101651,"causals","plant grow tall",0,"makes CATEGORY grow tall","[19, 21, u'?', 21, 21, 20, 20, 22, 22, 22, 21]",2,10,"prior","P",-99,"fertilizer","make the plants grow tall","common_weak","pangolins",0.3,"plants"
26,101651,"causals","plant grow tall",0,"makes CATEGORY grow tall","[19, 21, u'?', 21, 21, 20, 20, 22, 22, 22, 21]",2,10,"prior","Q",-99,"fertilizer","make the plants grow tall","common_weak","pangolins",0.3,"plants"
26,101651,"causals","plant grow tall",0,"makes CATEGORY grow tall","[19, 21, u'?', 21, 21, 20, 20, 22, 22, 22, 21]",2,10,"prior","R",-99,"fertilizer","make the plants grow tall","common_weak","pangolins",0.33,"plants"
27,47803,"causals","plant grow tall",0,"makes CATEGORY grow tall","[97, 98, 98, 100, u'?', 98, 100, 99, 100, 100, 100]",4,10,"prior","M",-99,"fertilizer","make the plants grow tall","common_deterministic","ackles",1,"plants"
27,47803,"causals","plant grow tall",0,"makes CATEGORY grow tall","[97, 98, 98, 100, u'?', 98, 100, 99, 100, 100, 100]",4,10,"prior","N",-99,"fertilizer","make the plants grow tall","common_deterministic","ackles",1,"plants"
27,47803,"causals","plant grow tall",0,"makes CATEGORY grow tall","[97, 98, 98, 100, u'?', 98, 100, 99, 100, 100, 100]",4,10,"prior","P",-99,"fertilizer","make the plants grow tall","common_deterministic","ackles",1,"plants"
27,47803,"causals","plant grow tall",0,"makes CATEGORY grow tall","[97, 98, 98, 100, u'?', 98, 100, 99, 100, 100, 100]",4,10,"prior","Q",-99,"fertilizer","make the plants grow tall","common_deterministic","ackles",1,"plants"
27,47803,"causals","plant grow tall",0,"makes CATEGORY grow tall","[97, 98, 98, 100, u'?', 98, 100, 99, 100, 100, 100]",4,10,"prior","R",-99,"fertilizer","make the plants grow tall","common_deterministic","ackles",1,"plants"
28,16902,"causals","animal make sleepy",0,"makes CATEGORY sleepy","[100, 100, u'?', 0, 0, 1, 0, 0, 98, 0, 0]",2,10,"prior","M",-99,"herb","make the animals sleepy","rare_deterministic","stups",0.17,"animals"
28,16902,"causals","animal make sleepy",0,"makes CATEGORY sleepy","[100, 100, u'?', 0, 0, 1, 0, 0, 98, 0, 0]",2,10,"prior","N",-99,"herb","make the animals sleepy","rare_deterministic","stups",0.39,"animals"
28,16902,"causals","animal make sleepy",0,"makes CATEGORY sleepy","[100, 100, u'?', 0, 0, 1, 0, 0, 98, 0, 0]",2,10,"prior","P",-99,"herb","make the animals sleepy","rare_deterministic","stups",0.29,"animals"
28,16902,"causals","animal make sleepy",0,"makes CATEGORY sleepy","[100, 100, u'?', 0, 0, 1, 0, 0, 98, 0, 0]",2,10,"prior","Q",-99,"herb","make the animals sleepy","rare_deterministic","stups",0.36,"animals"
28,16902,"causals","animal make sleepy",0,"makes CATEGORY sleepy","[100, 100, u'?', 0, 0, 1, 0, 0, 98, 0, 0]",2,10,"prior","R",-99,"herb","make the animals sleepy","rare_deterministic","stups",0.43,"animals"
29,58643,"causals","animal make sleepy",0,"makes CATEGORY sleepy","[100, 98, u'?', 99, 100, 99, 98, 97, 100, 100, 100]",2,10,"prior","M",-99,"herb","make the animals sleepy","common_deterministic","krivels",0.96,"animals"
29,58643,"causals","animal make sleepy",0,"makes CATEGORY sleepy","[100, 98, u'?', 99, 100, 99, 98, 97, 100, 100, 100]",2,10,"prior","N",-99,"herb","make the animals sleepy","common_deterministic","krivels",1,"animals"
29,58643,"causals","animal make sleepy",0,"makes CATEGORY sleepy","[100, 98, u'?', 99, 100, 99, 98, 97, 100, 100, 100]",2,10,"prior","P",-99,"herb","make the animals sleepy","common_deterministic","krivels",0.95,"animals"
29,58643,"causals","animal make sleepy",0,"makes CATEGORY sleepy","[100, 98, u'?', 99, 100, 99, 98, 97, 100, 100, 100]",2,10,"prior","Q",-99,"herb","make the animals sleepy","common_deterministic","krivels",0.96,"animals"
29,58643,"causals","animal make sleepy",0,"makes CATEGORY sleepy","[100, 98, u'?', 99, 100, 99, 98, 97, 100, 100, 100]",2,10,"prior","R",-99,"herb","make the animals sleepy","common_deterministic","krivels",1,"animals"
30,53240,"causals","plant grow tall",0,"makes CATEGORY grow tall","[20, 20, 19, 2, 1, u'?', 0, 0, 0, 0, 0]",5,10,"prior","M",-99,"fertilizer","make the plants grow tall","rare_weak","mooks",0,"plants"
30,53240,"causals","plant grow tall",0,"makes CATEGORY grow tall","[20, 20, 19, 2, 1, u'?', 0, 0, 0, 0, 0]",5,10,"prior","N",-99,"fertilizer","make the plants grow tall","rare_weak","mooks",0,"plants"
30,53240,"causals","plant grow tall",0,"makes CATEGORY grow tall","[20, 20, 19, 2, 1, u'?', 0, 0, 0, 0, 0]",5,10,"prior","P",-99,"fertilizer","make the plants grow tall","rare_weak","mooks",0,"plants"
30,53240,"causals","plant grow tall",0,"makes CATEGORY grow tall","[20, 20, 19, 2, 1, u'?', 0, 0, 0, 0, 0]",5,10,"prior","Q",-99,"fertilizer","make the plants grow tall","rare_weak","mooks",0,"plants"
30,53240,"causals","plant grow tall",0,"makes CATEGORY grow tall","[20, 20, 19, 2, 1, u'?', 0, 0, 0, 0, 0]",5,10,"prior","R",-99,"fertilizer","make the plants grow tall","rare_weak","mooks",0,"plants"
31,73747,"causals","animal make sleepy",0,"makes CATEGORY sleepy","[99, 100, 1, 97, 0, 1, 0, u'?', 0, 1, 1]",7,10,"prior","M",-99,"herb","make the animals sleepy","rare_deterministic","moxes",0.96,"animals"
31,73747,"causals","animal make sleepy",0,"makes CATEGORY sleepy","[99, 100, 1, 97, 0, 1, 0, u'?', 0, 1, 1]",7,10,"prior","N",-99,"herb","make the animals sleepy","rare_deterministic","moxes",0.96,"animals"
31,73747,"causals","animal make sleepy",0,"makes CATEGORY sleepy","[99, 100, 1, 97, 0, 1, 0, u'?', 0, 1, 1]",7,10,"prior","P",-99,"herb","make the animals sleepy","rare_deterministic","moxes",0,"animals"
31,73747,"causals","animal make sleepy",0,"makes CATEGORY sleepy","[99, 100, 1, 97, 0, 1, 0, u'?', 0, 1, 1]",7,10,"prior","Q",-99,"herb","make the animals sleepy","rare_deterministic","moxes",0,"animals"
31,73747,"causals","animal make sleepy",0,"makes CATEGORY sleepy","[99, 100, 1, 97, 0, 1, 0, u'?', 0, 1, 1]",7,10,"prior","R",-99,"herb","make the animals sleepy","rare_deterministic","moxes",0.96,"animals"
32,91364,"causals","plant grow tall",0,"makes CATEGORY grow tall","[2, 1, 0, 0, 0, 23, u'?', 0, 20, 0, 20]",6,10,"prior","M",-99,"fertilizer","make the plants grow tall","rare_weak","dorbs",0.09,"plants"
32,91364,"causals","plant grow tall",0,"makes CATEGORY grow tall","[2, 1, 0, 0, 0, 23, u'?', 0, 20, 0, 20]",6,10,"prior","N",-99,"fertilizer","make the plants grow tall","rare_weak","dorbs",0.09,"plants"
32,91364,"causals","plant grow tall",0,"makes CATEGORY grow tall","[2, 1, 0, 0, 0, 23, u'?', 0, 20, 0, 20]",6,10,"prior","P",-99,"fertilizer","make the plants grow tall","rare_weak","dorbs",0.09,"plants"
32,91364,"causals","plant grow tall",0,"makes CATEGORY grow tall","[2, 1, 0, 0, 0, 23, u'?', 0, 20, 0, 20]",6,10,"prior","Q",-99,"fertilizer","make the plants grow tall","rare_weak","dorbs",0.09,"plants"
32,91364,"causals","plant grow tall",0,"makes CATEGORY grow tall","[2, 1, 0, 0, 0, 23, u'?', 0, 20, 0, 20]",6,10,"prior","R",-99,"fertilizer","make the plants grow tall","rare_weak","dorbs",0.1,"plants"
33,58329,"causals","animal make sleepy",0,"makes CATEGORY sleepy","[100, 100, 99, 100, u'?', 100, 100, 100, 100, 100, 100]",4,10,"prior","M",-99,"herb","make the animals sleepy","common_deterministic","pangolins",1,"animals"
33,58329,"causals","animal make sleepy",0,"makes CATEGORY sleepy","[100, 100, 99, 100, u'?', 100, 100, 100, 100, 100, 100]",4,10,"prior","N",-99,"herb","make the animals sleepy","common_deterministic","pangolins",1,"animals"
33,58329,"causals","animal make sleepy",0,"makes CATEGORY sleepy","[100, 100, 99, 100, u'?', 100, 100, 100, 100, 100, 100]",4,10,"prior","P",-99,"herb","make the animals sleepy","common_deterministic","pangolins",1,"animals"
33,58329,"causals","animal make sleepy",0,"makes CATEGORY sleepy","[100, 100, 99, 100, u'?', 100, 100, 100, 100, 100, 100]",4,10,"prior","Q",-99,"herb","make the animals sleepy","common_deterministic","pangolins",0.99,"animals"
33,58329,"causals","animal make sleepy",0,"makes CATEGORY sleepy","[100, 100, 99, 100, u'?', 100, 100, 100, 100, 100, 100]",4,10,"prior","R",-99,"herb","make the animals sleepy","common_deterministic","pangolins",1,"animals"
34,152334,"causals","plant grow tall",0,"makes CATEGORY grow tall","[0, u'?', 0, 0, 97, 1, 100, 2, 0, 99, 0]",1,10,"prior","M",-99,"fertilizer","make the plants grow tall","rare_deterministic","moxes",0.96,"plants"
34,152334,"causals","plant grow tall",0,"makes CATEGORY grow tall","[0, u'?', 0, 0, 97, 1, 100, 2, 0, 99, 0]",1,10,"prior","N",-99,"fertilizer","make the plants grow tall","rare_deterministic","moxes",0.06,"plants"
34,152334,"causals","plant grow tall",0,"makes CATEGORY grow tall","[0, u'?', 0, 0, 97, 1, 100, 2, 0, 99, 0]",1,10,"prior","P",-99,"fertilizer","make the plants grow tall","rare_deterministic","moxes",0.98,"plants"
34,152334,"causals","plant grow tall",0,"makes CATEGORY grow tall","[0, u'?', 0, 0, 97, 1, 100, 2, 0, 99, 0]",1,10,"prior","Q",-99,"fertilizer","make the plants grow tall","rare_deterministic","moxes",0.01,"plants"
34,152334,"causals","plant grow tall",0,"makes CATEGORY grow tall","[0, u'?', 0, 0, 97, 1, 100, 2, 0, 99, 0]",1,10,"prior","R",-99,"fertilizer","make the plants grow tall","rare_deterministic","moxes",0.89,"plants"
35,67845,"causals","plant grow tall",0,"makes CATEGORY grow tall","[20, 21, 21, 17, 22, u'?', 21, 18, 21, 21, 20]",5,10,"prior","M",-99,"fertilizer","make the plants grow tall","common_weak","ollers",0.26,"plants"
35,67845,"causals","plant grow tall",0,"makes CATEGORY grow tall","[20, 21, 21, 17, 22, u'?', 21, 18, 21, 21, 20]",5,10,"prior","N",-99,"fertilizer","make the plants grow tall","common_weak","ollers",0.24,"plants"
35,67845,"causals","plant grow tall",0,"makes CATEGORY grow tall","[20, 21, 21, 17, 22, u'?', 21, 18, 21, 21, 20]",5,10,"prior","P",-99,"fertilizer","make the plants grow tall","common_weak","ollers",0.26,"plants"
35,67845,"causals","plant grow tall",0,"makes CATEGORY grow tall","[20, 21, 21, 17, 22, u'?', 21, 18, 21, 21, 20]",5,10,"prior","Q",-99,"fertilizer","make the plants grow tall","common_weak","ollers",0.25,"plants"
35,67845,"causals","plant grow tall",0,"makes CATEGORY grow tall","[20, 21, 21, 17, 22, u'?', 21, 18, 21, 21, 20]",5,10,"prior","R",-99,"fertilizer","make the plants grow tall","common_weak","ollers",0.27,"plants"
36,62555,"causals","plant grow tall",0,"makes CATEGORY grow tall","[100, 100, 100, 98, 99, 100, 98, u'?', 99, 99, 99]",7,10,"prior","M",-99,"fertilizer","make the plants grow tall","common_deterministic","trufts",0.97,"plants"
36,62555,"causals","plant grow tall",0,"makes CATEGORY grow tall","[100, 100, 100, 98, 99, 100, 98, u'?', 99, 99, 99]",7,10,"prior","N",-99,"fertilizer","make the plants grow tall","common_deterministic","trufts",0.98,"plants"
36,62555,"causals","plant grow tall",0,"makes CATEGORY grow tall","[100, 100, 100, 98, 99, 100, 98, u'?', 99, 99, 99]",7,10,"prior","P",-99,"fertilizer","make the plants grow tall","common_deterministic","trufts",0.99,"plants"
36,62555,"causals","plant grow tall",0,"makes CATEGORY grow tall","[100, 100, 100, 98, 99, 100, 98, u'?', 99, 99, 99]",7,10,"prior","Q",-99,"fertilizer","make the plants grow tall","common_deterministic","trufts",0.98,"plants"
36,62555,"causals","plant grow tall",0,"makes CATEGORY grow tall","[100, 100, 100, 98, 99, 100, 98, u'?', 99, 99, 99]",7,10,"prior","R",-99,"fertilizer","make the plants grow tall","common_deterministic","trufts",0.99,"plants"
37,27900,"causals","animal make sleepy",0,"makes CATEGORY sleepy","[20, 21, 19, 20, 22, 17, 20, 19, u'?', 21, 19]",8,10,"prior","M",-99,"herb","make the animals sleepy","common_weak","ollers",0.13,"animals"
37,27900,"causals","animal make sleepy",0,"makes CATEGORY sleepy","[20, 21, 19, 20, 22, 17, 20, 19, u'?', 21, 19]",8,10,"prior","N",-99,"herb","make the animals sleepy","common_weak","ollers",0.16,"animals"
37,27900,"causals","animal make sleepy",0,"makes CATEGORY sleepy","[20, 21, 19, 20, 22, 17, 20, 19, u'?', 21, 19]",8,10,"prior","P",-99,"herb","make the animals sleepy","common_weak","ollers",0.13,"animals"
37,27900,"causals","animal make sleepy",0,"makes CATEGORY sleepy","[20, 21, 19, 20, 22, 17, 20, 19, u'?', 21, 19]",8,10,"prior","Q",-99,"herb","make the animals sleepy","common_weak","ollers",0.14,"animals"
37,27900,"causals","animal make sleepy",0,"makes CATEGORY sleepy","[20, 21, 19, 20, 22, 17, 20, 19, u'?', 21, 19]",8,10,"prior","R",-99,"herb","make the animals sleepy","common_weak","ollers",0.16,"animals"
38,116036,"causals","animal make sleepy",0,"makes CATEGORY sleepy","[22, 2, 0, 1, u'?', 21, 19, 0, 1, 1, 1]",4,10,"prior","M",-99,"herb","make the animals sleepy","rare_weak","elleps",0,"animals"
38,116036,"causals","animal make sleepy",0,"makes CATEGORY sleepy","[22, 2, 0, 1, u'?', 21, 19, 0, 1, 1, 1]",4,10,"prior","N",-99,"herb","make the animals sleepy","rare_weak","elleps",0.21,"animals"
38,116036,"causals","animal make sleepy",0,"makes CATEGORY sleepy","[22, 2, 0, 1, u'?', 21, 19, 0, 1, 1, 1]",4,10,"prior","P",-99,"herb","make the animals sleepy","rare_weak","elleps",0,"animals"
38,116036,"causals","animal make sleepy",0,"makes CATEGORY sleepy","[22, 2, 0, 1, u'?', 21, 19, 0, 1, 1, 1]",4,10,"prior","Q",-99,"herb","make the animals sleepy","rare_weak","elleps",0,"animals"
38,116036,"causals","animal make sleepy",0,"makes CATEGORY sleepy","[22, 2, 0, 1, u'?', 21, 19, 0, 1, 1, 1]",4,10,"prior","R",-99,"herb","make the animals sleepy","rare_weak","elleps",0.22,"animals"
39,66625,"causals","animal make sleepy",0,"makes CATEGORY sleepy","[2, 0, 0, 100, 0, 99, 0, 0, u'?', 1, 100]",8,10,"prior","M",-99,"herb","make the animals sleepy","rare_deterministic","kweps",0,"animals"
39,66625,"causals","animal make sleepy",0,"makes CATEGORY sleepy","[2, 0, 0, 100, 0, 99, 0, 0, u'?', 1, 100]",8,10,"prior","N",-99,"herb","make the animals sleepy","rare_deterministic","kweps",0,"animals"
39,66625,"causals","animal make sleepy",0,"makes CATEGORY sleepy","[2, 0, 0, 100, 0, 99, 0, 0, u'?', 1, 100]",8,10,"prior","P",-99,"herb","make the animals sleepy","rare_deterministic","kweps",0.04,"animals"
39,66625,"causals","animal make sleepy",0,"makes CATEGORY sleepy","[2, 0, 0, 100, 0, 99, 0, 0, u'?', 1, 100]",8,10,"prior","Q",-99,"herb","make the animals sleepy","rare_deterministic","kweps",0.01,"animals"
39,66625,"causals","animal make sleepy",0,"makes CATEGORY sleepy","[2, 0, 0, 100, 0, 99, 0, 0, u'?', 1, 100]",8,10,"prior","R",-99,"herb","make the animals sleepy","rare_deterministic","kweps",0.96,"animals"
40,35677,"causals","plant grow tall",0,"makes CATEGORY grow tall","[1, 0, 2, 1, 19, 1, u'?', 22, 1, 1, 18]",6,10,"prior","M",-99,"fertilizer","make the plants grow tall","rare_weak","reesles",0.07,"plants"
40,35677,"causals","plant grow tall",0,"makes CATEGORY grow tall","[1, 0, 2, 1, 19, 1, u'?', 22, 1, 1, 18]",6,10,"prior","N",-99,"fertilizer","make the plants grow tall","rare_weak","reesles",0.04,"plants"
40,35677,"causals","plant grow tall",0,"makes CATEGORY grow tall","[1, 0, 2, 1, 19, 1, u'?', 22, 1, 1, 18]",6,10,"prior","P",-99,"fertilizer","make the plants grow tall","rare_weak","reesles",0.1,"plants"
40,35677,"causals","plant grow tall",0,"makes CATEGORY grow tall","[1, 0, 2, 1, 19, 1, u'?', 22, 1, 1, 18]",6,10,"prior","Q",-99,"fertilizer","make the plants grow tall","rare_weak","reesles",0.49,"plants"
40,35677,"causals","plant grow tall",0,"makes CATEGORY grow tall","[1, 0, 2, 1, 19, 1, u'?', 22, 1, 1, 18]",6,10,"prior","R",-99,"fertilizer","make the plants grow tall","rare_weak","reesles",0.09,"plants"
41,97932,"causals","plant grow tall",0,"makes CATEGORY grow tall","[100, 0, 0, u'?', 0, 100, 0, 0, 0, 99, 1]",3,10,"prior","M",-99,"fertilizer","make the plants grow tall","rare_deterministic","zoovs",0.99,"plants"
41,97932,"causals","plant grow tall",0,"makes CATEGORY grow tall","[100, 0, 0, u'?', 0, 100, 0, 0, 0, 99, 1]",3,10,"prior","N",-99,"fertilizer","make the plants grow tall","rare_deterministic","zoovs",0,"plants"
41,97932,"causals","plant grow tall",0,"makes CATEGORY grow tall","[100, 0, 0, u'?', 0, 100, 0, 0, 0, 99, 1]",3,10,"prior","P",-99,"fertilizer","make the plants grow tall","rare_deterministic","zoovs",0,"plants"
41,97932,"causals","plant grow tall",0,"makes CATEGORY grow tall","[100, 0, 0, u'?', 0, 100, 0, 0, 0, 99, 1]",3,10,"prior","Q",-99,"fertilizer","make the plants grow tall","rare_deterministic","zoovs",0.97,"plants"
41,97932,"causals","plant grow tall",0,"makes CATEGORY grow tall","[100, 0, 0, u'?', 0, 100, 0, 0, 0, 99, 1]",3,10,"prior","R",-99,"fertilizer","make the plants grow tall","rare_deterministic","zoovs",0,"plants"
42,311876,"causals","plant grow tall",0,"makes CATEGORY grow tall","[98, 100, 98, 100, 100, 99, u'?', 99, 98, 100, 99]",6,10,"prior","M",-99,"fertilizer","make the plants grow tall","common_deterministic","mooks",0.93,"plants"
42,311876,"causals","plant grow tall",0,"makes CATEGORY grow tall","[98, 100, 98, 100, 100, 99, u'?', 99, 98, 100, 99]",6,10,"prior","N",-99,"fertilizer","make the plants grow tall","common_deterministic","mooks",1,"plants"
42,311876,"causals","plant grow tall",0,"makes CATEGORY grow tall","[98, 100, 98, 100, 100, 99, u'?', 99, 98, 100, 99]",6,10,"prior","P",-99,"fertilizer","make the plants grow tall","common_deterministic","mooks",0.94,"plants"
42,311876,"causals","plant grow tall",0,"makes CATEGORY grow tall","[98, 100, 98, 100, 100, 99, u'?', 99, 98, 100, 99]",6,10,"prior","Q",-99,"fertilizer","make the plants grow tall","common_deterministic","mooks",1,"plants"
42,311876,"causals","plant grow tall",0,"makes CATEGORY grow tall","[98, 100, 98, 100, 100, 99, u'?', 99, 98, 100, 99]",6,10,"prior","R",-99,"fertilizer","make the plants grow tall","common_deterministic","mooks",0.95,"plants"
43,111873,"causals","plant grow tall",0,"makes CATEGORY grow tall","[0, 0, 100, 97, u'?', 2, 0, 97, 0, 1, 0]",4,10,"prior","M",-99,"fertilizer","make the plants grow tall","rare_deterministic","ackles",0,"plants"
43,111873,"causals","plant grow tall",0,"makes CATEGORY grow tall","[0, 0, 100, 97, u'?', 2, 0, 97, 0, 1, 0]",4,10,"prior","N",-99,"fertilizer","make the plants grow tall","rare_deterministic","ackles",0.93,"plants"
43,111873,"causals","plant grow tall",0,"makes CATEGORY grow tall","[0, 0, 100, 97, u'?', 2, 0, 97, 0, 1, 0]",4,10,"prior","P",-99,"fertilizer","make the plants grow tall","rare_deterministic","ackles",0.07,"plants"
43,111873,"causals","plant grow tall",0,"makes CATEGORY grow tall","[0, 0, 100, 97, u'?', 2, 0, 97, 0, 1, 0]",4,10,"prior","Q",-99,"fertilizer","make the plants grow tall","rare_deterministic","ackles",0,"plants"
43,111873,"causals","plant grow tall",0,"makes CATEGORY grow tall","[0, 0, 100, 97, u'?', 2, 0, 97, 0, 1, 0]",4,10,"prior","R",-99,"fertilizer","make the plants grow tall","rare_deterministic","ackles",0.99,"plants"
44,144205,"causals","plant grow tall",0,"makes CATEGORY grow tall","[21, 20, u'?', 21, 23, 21, 22, 21, 21, 20, 20]",2,10,"prior","M",-99,"fertilizer","make the plants grow tall","common_weak","wugs",0.31,"plants"
44,144205,"causals","plant grow tall",0,"makes CATEGORY grow tall","[21, 20, u'?', 21, 23, 21, 22, 21, 21, 20, 20]",2,10,"prior","N",-99,"fertilizer","make the plants grow tall","common_weak","wugs",0.31,"plants"
44,144205,"causals","plant grow tall",0,"makes CATEGORY grow tall","[21, 20, u'?', 21, 23, 21, 22, 21, 21, 20, 20]",2,10,"prior","P",-99,"fertilizer","make the plants grow tall","common_weak","wugs",0.3,"plants"
44,144205,"causals","plant grow tall",0,"makes CATEGORY grow tall","[21, 20, u'?', 21, 23, 21, 22, 21, 21, 20, 20]",2,10,"prior","Q",-99,"fertilizer","make the plants grow tall","common_weak","wugs",0.31,"plants"
44,144205,"causals","plant grow tall",0,"makes CATEGORY grow tall","[21, 20, u'?', 21, 23, 21, 22, 21, 21, 20, 20]",2,10,"prior","R",-99,"fertilizer","make the plants grow tall","common_weak","wugs",0.31,"plants"
45,94527,"causals","plant grow tall",0,"makes CATEGORY grow tall","[100, u'?', 99, 100, 95, 99, 100, 100, 100, 96, 100]",1,10,"prior","M",-99,"fertilizer","make the plants grow tall","common_deterministic","zoovs",0.95,"plants"
45,94527,"causals","plant grow tall",0,"makes CATEGORY grow tall","[100, u'?', 99, 100, 95, 99, 100, 100, 100, 96, 100]",1,10,"prior","N",-99,"fertilizer","make the plants grow tall","common_deterministic","zoovs",1,"plants"
45,94527,"causals","plant grow tall",0,"makes CATEGORY grow tall","[100, u'?', 99, 100, 95, 99, 100, 100, 100, 96, 100]",1,10,"prior","P",-99,"fertilizer","make the plants grow tall","common_deterministic","zoovs",0.99,"plants"
45,94527,"causals","plant grow tall",0,"makes CATEGORY grow tall","[100, u'?', 99, 100, 95, 99, 100, 100, 100, 96, 100]",1,10,"prior","Q",-99,"fertilizer","make the plants grow tall","common_deterministic","zoovs",0.94,"plants"
45,94527,"causals","plant grow tall",0,"makes CATEGORY grow tall","[100, u'?', 99, 100, 95, 99, 100, 100, 100, 96, 100]",1,10,"prior","R",-99,"fertilizer","make the plants grow tall","common_deterministic","zoovs",0.99,"plants"
46,164762,"causals","plant grow tall",0,"makes CATEGORY grow tall","[1, 1, 0, 100, u'?', 0, 1, 1, 0, 99, 100]",4,10,"prior","M",-99,"fertilizer","make the plants grow tall","rare_deterministic","lorches",0.04,"plants"
46,164762,"causals","plant grow tall",0,"makes CATEGORY grow tall","[1, 1, 0, 100, u'?', 0, 1, 1, 0, 99, 100]",4,10,"prior","N",-99,"fertilizer","make the plants grow tall","rare_deterministic","lorches",0.04,"plants"
46,164762,"causals","plant grow tall",0,"makes CATEGORY grow tall","[1, 1, 0, 100, u'?', 0, 1, 1, 0, 99, 100]",4,10,"prior","P",-99,"fertilizer","make the plants grow tall","rare_deterministic","lorches",0.99,"plants"
46,164762,"causals","plant grow tall",0,"makes CATEGORY grow tall","[1, 1, 0, 100, u'?', 0, 1, 1, 0, 99, 100]",4,10,"prior","Q",-99,"fertilizer","make the plants grow tall","rare_deterministic","lorches",0,"plants"
46,164762,"causals","plant grow tall",0,"makes CATEGORY grow tall","[1, 1, 0, 100, u'?', 0, 1, 1, 0, 99, 100]",4,10,"prior","R",-99,"fertilizer","make the plants grow tall","rare_deterministic","lorches",0.01,"plants"
47,62663,"causals","plant grow tall",0,"makes CATEGORY grow tall","[96, 98, 100, 100, 100, 99, 98, u'?', 100, 100, 98]",7,10,"prior","M",-99,"fertilizer","make the plants grow tall","common_deterministic","sapers",1,"plants"
47,62663,"causals","plant grow tall",0,"makes CATEGORY grow tall","[96, 98, 100, 100, 100, 99, 98, u'?', 100, 100, 98]",7,10,"prior","N",-99,"fertilizer","make the plants grow tall","common_deterministic","sapers",1,"plants"
47,62663,"causals","plant grow tall",0,"makes CATEGORY grow tall","[96, 98, 100, 100, 100, 99, 98, u'?', 100, 100, 98]",7,10,"prior","P",-99,"fertilizer","make the plants grow tall","common_deterministic","sapers",1,"plants"
47,62663,"causals","plant grow tall",0,"makes CATEGORY grow tall","[96, 98, 100, 100, 100, 99, 98, u'?', 100, 100, 98]",7,10,"prior","Q",-99,"fertilizer","make the plants grow tall","common_deterministic","sapers",1,"plants"
47,62663,"causals","plant grow tall",0,"makes CATEGORY grow tall","[96, 98, 100, 100, 100, 99, 98, u'?', 100, 100, 98]",7,10,"prior","R",-99,"fertilizer","make the plants grow tall","common_deterministic","sapers",1,"plants"
48,101926,"causals","animal make sleepy",0,"makes CATEGORY sleepy","[0, 2, u'?', 0, 19, 19, 1, 0, 0, 1, 20]",2,10,"prior","M",-99,"herb","make the animals sleepy","rare_weak","reesles",0.06,"animals"
48,101926,"causals","animal make sleepy",0,"makes CATEGORY sleepy","[0, 2, u'?', 0, 19, 19, 1, 0, 0, 1, 20]",2,10,"prior","N",-99,"herb","make the animals sleepy","rare_weak","reesles",0.1,"animals"
48,101926,"causals","animal make sleepy",0,"makes CATEGORY sleepy","[0, 2, u'?', 0, 19, 19, 1, 0, 0, 1, 20]",2,10,"prior","P",-99,"herb","make the animals sleepy","rare_weak","reesles",0.12,"animals"
48,101926,"causals","animal make sleepy",0,"makes CATEGORY sleepy","[0, 2, u'?', 0, 19, 19, 1, 0, 0, 1, 20]",2,10,"prior","Q",-99,"herb","make the animals sleepy","rare_weak","reesles",0.05,"animals"
48,101926,"causals","animal make sleepy",0,"makes CATEGORY sleepy","[0, 2, u'?', 0, 19, 19, 1, 0, 0, 1, 20]",2,10,"prior","R",-99,"herb","make the animals sleepy","rare_weak","reesles",0.16,"animals"
49,88337,"causals","animal make sleepy",0,"makes CATEGORY sleepy","[20, 21, 21, 19, 19, 19, 20, 20, u'?', 20, 20]",8,10,"prior","M",-99,"herb","make the animals sleepy","common_weak","wugs",0.75,"animals"
49,88337,"causals","animal make sleepy",0,"makes CATEGORY sleepy","[20, 21, 21, 19, 19, 19, 20, 20, u'?', 20, 20]",8,10,"prior","N",-99,"herb","make the animals sleepy","common_weak","wugs",0.73,"animals"
49,88337,"causals","animal make sleepy",0,"makes CATEGORY sleepy","[20, 21, 21, 19, 19, 19, 20, 20, u'?', 20, 20]",8,10,"prior","P",-99,"herb","make the animals sleepy","common_weak","wugs",0.7,"animals"
49,88337,"causals","animal make sleepy",0,"makes CATEGORY sleepy","[20, 21, 21, 19, 19, 19, 20, 20, u'?', 20, 20]",8,10,"prior","Q",-99,"herb","make the animals sleepy","common_weak","wugs",0.74,"animals"
49,88337,"causals","animal make sleepy",0,"makes CATEGORY sleepy","[20, 21, 21, 19, 19, 19, 20, 20, u'?', 20, 20]",8,10,"prior","R",-99,"herb","make the animals sleepy","common_weak","wugs",0.82,"animals"
50,75028,"causals","animal make sleepy",0,"makes CATEGORY sleepy","[19, 20, 22, 21, 20, 18, u'?', 21, 20, 18, 19]",6,10,"prior","M",-99,"herb","make the animals sleepy","common_weak","feps",0.18,"animals"
50,75028,"causals","animal make sleepy",0,"makes CATEGORY sleepy","[19, 20, 22, 21, 20, 18, u'?', 21, 20, 18, 19]",6,10,"prior","N",-99,"herb","make the animals sleepy","common_weak","feps",0.18,"animals"
50,75028,"causals","animal make sleepy",0,"makes CATEGORY sleepy","[19, 20, 22, 21, 20, 18, u'?', 21, 20, 18, 19]",6,10,"prior","P",-99,"herb","make the animals sleepy","common_weak","feps",0.18,"animals"
50,75028,"causals","animal make sleepy",0,"makes CATEGORY sleepy","[19, 20, 22, 21, 20, 18, u'?', 21, 20, 18, 19]",6,10,"prior","Q",-99,"herb","make the animals sleepy","common_weak","feps",0.18,"animals"
50,75028,"causals","animal make sleepy",0,"makes CATEGORY sleepy","[19, 20, 22, 21, 20, 18, u'?', 21, 20, 18, 19]",6,10,"prior","R",-99,"herb","make the animals sleepy","common_weak","feps",0.18,"animals"
51,283974,"causals","animal make sleepy",0,"makes CATEGORY sleepy","[99, 98, u'?', 100, 99, 99, 100, 100, 99, 100, 100]",2,10,"prior","M",-99,"herb","make the animals sleepy","common_deterministic","zoovs",1,"animals"
51,283974,"causals","animal make sleepy",0,"makes CATEGORY sleepy","[99, 98, u'?', 100, 99, 99, 100, 100, 99, 100, 100]",2,10,"prior","N",-99,"herb","make the animals sleepy","common_deterministic","zoovs",0.99,"animals"
51,283974,"causals","animal make sleepy",0,"makes CATEGORY sleepy","[99, 98, u'?', 100, 99, 99, 100, 100, 99, 100, 100]",2,10,"prior","P",-99,"herb","make the animals sleepy","common_deterministic","zoovs",0.99,"animals"
51,283974,"causals","animal make sleepy",0,"makes CATEGORY sleepy","[99, 98, u'?', 100, 99, 99, 100, 100, 99, 100, 100]",2,10,"prior","Q",-99,"herb","make the animals sleepy","common_deterministic","zoovs",0.99,"animals"
51,283974,"causals","animal make sleepy",0,"makes CATEGORY sleepy","[99, 98, u'?', 100, 99, 99, 100, 100, 99, 100, 100]",2,10,"prior","R",-99,"herb","make the animals sleepy","common_deterministic","zoovs",0.99,"animals"
52,349472,"causals","plant grow tall",0,"makes CATEGORY grow tall","[99, u'?', 100, 98, 100, 99, 100, 97, 99, 100, 99]",1,10,"prior","M",-99,"fertilizer","make the plants grow tall","common_deterministic","ollers",1,"plants"
52,349472,"causals","plant grow tall",0,"makes CATEGORY grow tall","[99, u'?', 100, 98, 100, 99, 100, 97, 99, 100, 99]",1,10,"prior","N",-99,"fertilizer","make the plants grow tall","common_deterministic","ollers",0.97,"plants"
52,349472,"causals","plant grow tall",0,"makes CATEGORY grow tall","[99, u'?', 100, 98, 100, 99, 100, 97, 99, 100, 99]",1,10,"prior","P",-99,"fertilizer","make the plants grow tall","common_deterministic","ollers",0.95,"plants"
52,349472,"causals","plant grow tall",0,"makes CATEGORY grow tall","[99, u'?', 100, 98, 100, 99, 100, 97, 99, 100, 99]",1,10,"prior","Q",-99,"fertilizer","make the plants grow tall","common_deterministic","ollers",0.98,"plants"
52,349472,"causals","plant grow tall",0,"makes CATEGORY grow tall","[99, u'?', 100, 98, 100, 99, 100, 97, 99, 100, 99]",1,10,"prior","R",-99,"fertilizer","make the plants grow tall","common_deterministic","ollers",0.96,"plants"
53,39063,"causals","plant grow tall",0,"makes CATEGORY grow tall","[97, 100, u'?', 98, 100, 99, 99, 98, 100, 100, 100]",2,10,"prior","M",-99,"fertilizer","make the plants grow tall","common_deterministic","morseths",0.91,"plants"
53,39063,"causals","plant grow tall",0,"makes CATEGORY grow tall","[97, 100, u'?', 98, 100, 99, 99, 98, 100, 100, 100]",2,10,"prior","N",-99,"fertilizer","make the plants grow tall","common_deterministic","morseths",0.91,"plants"
53,39063,"causals","plant grow tall",0,"makes CATEGORY grow tall","[97, 100, u'?', 98, 100, 99, 99, 98, 100, 100, 100]",2,10,"prior","P",-99,"fertilizer","make the plants grow tall","common_deterministic","morseths",0.94,"plants"
53,39063,"causals","plant grow tall",0,"makes CATEGORY grow tall","[97, 100, u'?', 98, 100, 99, 99, 98, 100, 100, 100]",2,10,"prior","Q",-99,"fertilizer","make the plants grow tall","common_deterministic","morseths",0.98,"plants"
53,39063,"causals","plant grow tall",0,"makes CATEGORY grow tall","[97, 100, u'?', 98, 100, 99, 99, 98, 100, 100, 100]",2,10,"prior","R",-99,"fertilizer","make the plants grow tall","common_deterministic","morseths",0.88,"plants"
54,51117,"causals","animal make sleepy",0,"makes CATEGORY sleepy","[0, u'?', 0, 1, 98, 0, 3, 100, 0, 98, 0]",1,10,"prior","M",-99,"herb","make the animals sleepy","rare_deterministic","javs",0,"animals"
54,51117,"causals","animal make sleepy",0,"makes CATEGORY sleepy","[0, u'?', 0, 1, 98, 0, 3, 100, 0, 98, 0]",1,10,"prior","N",-99,"herb","make the animals sleepy","rare_deterministic","javs",0.01,"animals"
54,51117,"causals","animal make sleepy",0,"makes CATEGORY sleepy","[0, u'?', 0, 1, 98, 0, 3, 100, 0, 98, 0]",1,10,"prior","P",-99,"herb","make the animals sleepy","rare_deterministic","javs",0,"animals"
54,51117,"causals","animal make sleepy",0,"makes CATEGORY sleepy","[0, u'?', 0, 1, 98, 0, 3, 100, 0, 98, 0]",1,10,"prior","Q",-99,"herb","make the animals sleepy","rare_deterministic","javs",0,"animals"
54,51117,"causals","animal make sleepy",0,"makes CATEGORY sleepy","[0, u'?', 0, 1, 98, 0, 3, 100, 0, 98, 0]",1,10,"prior","R",-99,"herb","make the animals sleepy","rare_deterministic","javs",0.02,"animals"
55,75102,"causals","plant grow tall",0,"makes CATEGORY grow tall","[18, 21, u'?', 20, 17, 19, 19, 19, 18, 20, 23]",2,10,"prior","M",-99,"fertilizer","make the plants grow tall","common_weak","daiths",0.18,"plants"
55,75102,"causals","plant grow tall",0,"makes CATEGORY grow tall","[18, 21, u'?', 20, 17, 19, 19, 19, 18, 20, 23]",2,10,"prior","N",-99,"fertilizer","make the plants grow tall","common_weak","daiths",0.17,"plants"
55,75102,"causals","plant grow tall",0,"makes CATEGORY grow tall","[18, 21, u'?', 20, 17, 19, 19, 19, 18, 20, 23]",2,10,"prior","P",-99,"fertilizer","make the plants grow tall","common_weak","daiths",0.19,"plants"
55,75102,"causals","plant grow tall",0,"makes CATEGORY grow tall","[18, 21, u'?', 20, 17, 19, 19, 19, 18, 20, 23]",2,10,"prior","Q",-99,"fertilizer","make the plants grow tall","common_weak","daiths",0.15,"plants"
55,75102,"causals","plant grow tall",0,"makes CATEGORY grow tall","[18, 21, u'?', 20, 17, 19, 19, 19, 18, 20, 23]",2,10,"prior","R",-99,"fertilizer","make the plants grow tall","common_weak","daiths",0.21,"plants"
56,69820,"causals","animal make sleepy",0,"makes CATEGORY sleepy","[98, 0, u'?', 98, 0, 0, 0, 100, 0, 0, 0]",2,10,"prior","M",-99,"herb","make the animals sleepy","rare_deterministic","elleps",0.83,"animals"
56,69820,"causals","animal make sleepy",0,"makes CATEGORY sleepy","[98, 0, u'?', 98, 0, 0, 0, 100, 0, 0, 0]",2,10,"prior","N",-99,"herb","make the animals sleepy","rare_deterministic","elleps",0.05,"animals"
56,69820,"causals","animal make sleepy",0,"makes CATEGORY sleepy","[98, 0, u'?', 98, 0, 0, 0, 100, 0, 0, 0]",2,10,"prior","P",-99,"herb","make the animals sleepy","rare_deterministic","elleps",0.03,"animals"
56,69820,"causals","animal make sleepy",0,"makes CATEGORY sleepy","[98, 0, u'?', 98, 0, 0, 0, 100, 0, 0, 0]",2,10,"prior","Q",-99,"herb","make the animals sleepy","rare_deterministic","elleps",0.04,"animals"
56,69820,"causals","animal make sleepy",0,"makes CATEGORY sleepy","[98, 0, u'?', 98, 0, 0, 0, 100, 0, 0, 0]",2,10,"prior","R",-99,"herb","make the animals sleepy","rare_deterministic","elleps",0.67,"animals"
57,46380,"causals","plant grow tall",0,"makes CATEGORY grow tall","[99, 97, 100, u'?', 100, 100, 100, 100, 99, 98, 99]",3,10,"prior","M",-99,"fertilizer","make the plants grow tall","common_deterministic","thups",0.95,"plants"
57,46380,"causals","plant grow tall",0,"makes CATEGORY grow tall","[99, 97, 100, u'?', 100, 100, 100, 100, 99, 98, 99]",3,10,"prior","N",-99,"fertilizer","make the plants grow tall","common_deterministic","thups",0.95,"plants"
57,46380,"causals","plant grow tall",0,"makes CATEGORY grow tall","[99, 97, 100, u'?', 100, 100, 100, 100, 99, 98, 99]",3,10,"prior","P",-99,"fertilizer","make the plants grow tall","common_deterministic","thups",0.94,"plants"
57,46380,"causals","plant grow tall",0,"makes CATEGORY grow tall","[99, 97, 100, u'?', 100, 100, 100, 100, 99, 98, 99]",3,10,"prior","Q",-99,"fertilizer","make the plants grow tall","common_deterministic","thups",0.94,"plants"
57,46380,"causals","plant grow tall",0,"makes CATEGORY grow tall","[99, 97, 100, u'?', 100, 100, 100, 100, 99, 98, 99]",3,10,"prior","R",-99,"fertilizer","make the plants grow tall","common_deterministic","thups",0.97,"plants"
58,63288,"causals","animal make sleepy",0,"makes CATEGORY sleepy","[19, 19, 18, 19, 20, 18, 22, 20, u'?', 17, 18]",8,10,"prior","M",-99,"herb","make the animals sleepy","common_weak","zorbs",0.19,"animals"
58,63288,"causals","animal make sleepy",0,"makes CATEGORY sleepy","[19, 19, 18, 19, 20, 18, 22, 20, u'?', 17, 18]",8,10,"prior","N",-99,"herb","make the animals sleepy","common_weak","zorbs",0.25,"animals"
58,63288,"causals","animal make sleepy",0,"makes CATEGORY sleepy","[19, 19, 18, 19, 20, 18, 22, 20, u'?', 17, 18]",8,10,"prior","P",-99,"herb","make the animals sleepy","common_weak","zorbs",0.17,"animals"
58,63288,"causals","animal make sleepy",0,"makes CATEGORY sleepy","[19, 19, 18, 19, 20, 18, 22, 20, u'?', 17, 18]",8,10,"prior","Q",-99,"herb","make the animals sleepy","common_weak","zorbs",0.22,"animals"
58,63288,"causals","animal make sleepy",0,"makes CATEGORY sleepy","[19, 19, 18, 19, 20, 18, 22, 20, u'?', 17, 18]",8,10,"prior","R",-99,"herb","make the animals sleepy","common_weak","zorbs",0.2,"animals"
59,63563,"causals","plant grow tall",0,"makes CATEGORY grow tall","[1, u'?', 1, 0, 19, 22, 0, 17, 2, 1, 1]",1,10,"prior","M",-99,"fertilizer","make the plants grow tall","rare_weak","kazzes",0.04,"plants"
59,63563,"causals","plant grow tall",0,"makes CATEGORY grow tall","[1, u'?', 1, 0, 19, 22, 0, 17, 2, 1, 1]",1,10,"prior","N",-99,"fertilizer","make the plants grow tall","rare_weak","kazzes",0.05,"plants"
59,63563,"causals","plant grow tall",0,"makes CATEGORY grow tall","[1, u'?', 1, 0, 19, 22, 0, 17, 2, 1, 1]",1,10,"prior","P",-99,"fertilizer","make the plants grow tall","rare_weak","kazzes",0.05,"plants"
59,63563,"causals","plant grow tall",0,"makes CATEGORY grow tall","[1, u'?', 1, 0, 19, 22, 0, 17, 2, 1, 1]",1,10,"prior","Q",-99,"fertilizer","make the plants grow tall","rare_weak","kazzes",0.05,"plants"
59,63563,"causals","plant grow tall",0,"makes CATEGORY grow tall","[1, u'?', 1, 0, 19, 22, 0, 17, 2, 1, 1]",1,10,"prior","R",-99,"fertilizer","make the plants grow tall","rare_weak","kazzes",0.06,"plants"
60,120213,"causals","plant grow tall",0,"makes CATEGORY grow tall","[19, 20, 20, 21, u'?', 19, 20, 19, 21, 20, 19]",4,10,"prior","M",-99,"fertilizer","make the plants grow tall","common_weak","luzaks",0.2,"plants"
60,120213,"causals","plant grow tall",0,"makes CATEGORY grow tall","[19, 20, 20, 21, u'?', 19, 20, 19, 21, 20, 19]",4,10,"prior","N",-99,"fertilizer","make the plants grow tall","common_weak","luzaks",0.2,"plants"
60,120213,"causals","plant grow tall",0,"makes CATEGORY grow tall","[19, 20, 20, 21, u'?', 19, 20, 19, 21, 20, 19]",4,10,"prior","P",-99,"fertilizer","make the plants grow tall","common_weak","luzaks",0.2,"plants"
60,120213,"causals","plant grow tall",0,"makes CATEGORY grow tall","[19, 20, 20, 21, u'?', 19, 20, 19, 21, 20, 19]",4,10,"prior","Q",-99,"fertilizer","make the plants grow tall","common_weak","luzaks",0.2,"plants"
60,120213,"causals","plant grow tall",0,"makes CATEGORY grow tall","[19, 20, 20, 21, u'?', 19, 20, 19, 21, 20, 19]",4,10,"prior","R",-99,"fertilizer","make the plants grow tall","common_weak","luzaks",0.2,"plants"
61,96062,"causals","animal make sleepy",0,"makes CATEGORY sleepy","[99, 1, 0, u'?', 97, 1, 100, 0, 0, 0, 1]",3,10,"prior","M",-99,"herb","make the animals sleepy","rare_deterministic","kweps",0.92,"animals"
61,96062,"causals","animal make sleepy",0,"makes CATEGORY sleepy","[99, 1, 0, u'?', 97, 1, 100, 0, 0, 0, 1]",3,10,"prior","N",-99,"herb","make the animals sleepy","rare_deterministic","kweps",0.01,"animals"
61,96062,"causals","animal make sleepy",0,"makes CATEGORY sleepy","[99, 1, 0, u'?', 97, 1, 100, 0, 0, 0, 1]",3,10,"prior","P",-99,"herb","make the animals sleepy","rare_deterministic","kweps",0.03,"animals"
61,96062,"causals","animal make sleepy",0,"makes CATEGORY sleepy","[99, 1, 0, u'?', 97, 1, 100, 0, 0, 0, 1]",3,10,"prior","Q",-99,"herb","make the animals sleepy","rare_deterministic","kweps",0.03,"animals"
61,96062,"causals","animal make sleepy",0,"makes CATEGORY sleepy","[99, 1, 0, u'?', 97, 1, 100, 0, 0, 0, 1]",3,10,"prior","R",-99,"herb","make the animals sleepy","rare_deterministic","kweps",0.92,"animals"
62,22694,"causals","animal make sleepy",0,"makes CATEGORY sleepy","[1, 99, 1, 100, u'?', 0, 0, 100, 0, 2, 0]",4,10,"prior","M",-99,"herb","make the animals sleepy","rare_deterministic","wugs",0.13,"animals"
62,22694,"causals","animal make sleepy",0,"makes CATEGORY sleepy","[1, 99, 1, 100, u'?', 0, 0, 100, 0, 2, 0]",4,10,"prior","N",-99,"herb","make the animals sleepy","rare_deterministic","wugs",0.04,"animals"
62,22694,"causals","animal make sleepy",0,"makes CATEGORY sleepy","[1, 99, 1, 100, u'?', 0, 0, 100, 0, 2, 0]",4,10,"prior","P",-99,"herb","make the animals sleepy","rare_deterministic","wugs",0.23,"animals"
62,22694,"causals","animal make sleepy",0,"makes CATEGORY sleepy","[1, 99, 1, 100, u'?', 0, 0, 100, 0, 2, 0]",4,10,"prior","Q",-99,"herb","make the animals sleepy","rare_deterministic","wugs",0.09,"animals"
62,22694,"causals","animal make sleepy",0,"makes CATEGORY sleepy","[1, 99, 1, 100, u'?', 0, 0, 100, 0, 2, 0]",4,10,"prior","R",-99,"herb","make the animals sleepy","rare_deterministic","wugs",0.05,"animals"
63,54463,"causals","animal make sleepy",0,"makes CATEGORY sleepy","[1, 19, 2, 0, 0, u'?', 20, 0, 0, 0, 19]",5,10,"prior","M",-99,"herb","make the animals sleepy","rare_weak","taifels",0.23,"animals"
63,54463,"causals","animal make sleepy",0,"makes CATEGORY sleepy","[1, 19, 2, 0, 0, u'?', 20, 0, 0, 0, 19]",5,10,"prior","N",-99,"herb","make the animals sleepy","rare_weak","taifels",0.31,"animals"
63,54463,"causals","animal make sleepy",0,"makes CATEGORY sleepy","[1, 19, 2, 0, 0, u'?', 20, 0, 0, 0, 19]",5,10,"prior","P",-99,"herb","make the animals sleepy","rare_weak","taifels",0.39,"animals"
63,54463,"causals","animal make sleepy",0,"makes CATEGORY sleepy","[1, 19, 2, 0, 0, u'?', 20, 0, 0, 0, 19]",5,10,"prior","Q",-99,"herb","make the animals sleepy","rare_weak","taifels",0.24,"animals"
63,54463,"causals","animal make sleepy",0,"makes CATEGORY sleepy","[1, 19, 2, 0, 0, u'?', 20, 0, 0, 0, 19]",5,10,"prior","R",-99,"herb","make the animals sleepy","rare_weak","taifels",0.3,"animals"
64,54868,"causals","plant grow tall",0,"makes CATEGORY grow tall","[100, 0, 1, 0, 0, 0, 1, u'?', 100, 100, 0]",7,10,"prior","M",-99,"fertilizer","make the plants grow tall","rare_deterministic","taifels",0,"plants"
64,54868,"causals","plant grow tall",0,"makes CATEGORY grow tall","[100, 0, 1, 0, 0, 0, 1, u'?', 100, 100, 0]",7,10,"prior","N",-99,"fertilizer","make the plants grow tall","rare_deterministic","taifels",0,"plants"
64,54868,"causals","plant grow tall",0,"makes CATEGORY grow tall","[100, 0, 1, 0, 0, 0, 1, u'?', 100, 100, 0]",7,10,"prior","P",-99,"fertilizer","make the plants grow tall","rare_deterministic","taifels",0,"plants"
64,54868,"causals","plant grow tall",0,"makes CATEGORY grow tall","[100, 0, 1, 0, 0, 0, 1, u'?', 100, 100, 0]",7,10,"prior","Q",-99,"fertilizer","make the plants grow tall","rare_deterministic","taifels",0,"plants"
64,54868,"causals","plant grow tall",0,"makes CATEGORY grow tall","[100, 0, 1, 0, 0, 0, 1, u'?', 100, 100, 0]",7,10,"prior","R",-99,"fertilizer","make the plants grow tall","rare_deterministic","taifels",0,"plants"
65,81713,"causals","plant grow tall",0,"makes CATEGORY grow tall","[20, 21, 21, 23, 22, 19, u'?', 23, 19, 19, 21]",6,10,"prior","M",-99,"fertilizer","make the plants grow tall","common_weak","ackles",0.14,"plants"
65,81713,"causals","plant grow tall",0,"makes CATEGORY grow tall","[20, 21, 21, 23, 22, 19, u'?', 23, 19, 19, 21]",6,10,"prior","N",-99,"fertilizer","make the plants grow tall","common_weak","ackles",0.16,"plants"
65,81713,"causals","plant grow tall",0,"makes CATEGORY grow tall","[20, 21, 21, 23, 22, 19, u'?', 23, 19, 19, 21]",6,10,"prior","P",-99,"fertilizer","make the plants grow tall","common_weak","ackles",0.1,"plants"
65,81713,"causals","plant grow tall",0,"makes CATEGORY grow tall","[20, 21, 21, 23, 22, 19, u'?', 23, 19, 19, 21]",6,10,"prior","Q",-99,"fertilizer","make the plants grow tall","common_weak","ackles",0.15,"plants"
65,81713,"causals","plant grow tall",0,"makes CATEGORY grow tall","[20, 21, 21, 23, 22, 19, u'?', 23, 19, 19, 21]",6,10,"prior","R",-99,"fertilizer","make the plants grow tall","common_weak","ackles",0.11,"plants"
66,80403,"causals","plant grow tall",0,"makes CATEGORY grow tall","[1, 0, 2, 98, u'?', 99, 0, 2, 0, 100, 1]",4,10,"prior","M",-99,"fertilizer","make the plants grow tall","rare_deterministic","krivels",0,"plants"
66,80403,"causals","plant grow tall",0,"makes CATEGORY grow tall","[1, 0, 2, 98, u'?', 99, 0, 2, 0, 100, 1]",4,10,"prior","N",-99,"fertilizer","make the plants grow tall","rare_deterministic","krivels",0,"plants"
66,80403,"causals","plant grow tall",0,"makes CATEGORY grow tall","[1, 0, 2, 98, u'?', 99, 0, 2, 0, 100, 1]",4,10,"prior","P",-99,"fertilizer","make the plants grow tall","rare_deterministic","krivels",0,"plants"
66,80403,"causals","plant grow tall",0,"makes CATEGORY grow tall","[1, 0, 2, 98, u'?', 99, 0, 2, 0, 100, 1]",4,10,"prior","Q",-99,"fertilizer","make the plants grow tall","rare_deterministic","krivels",0,"plants"
66,80403,"causals","plant grow tall",0,"makes CATEGORY grow tall","[1, 0, 2, 98, u'?', 99, 0, 2, 0, 100, 1]",4,10,"prior","R",-99,"fertilizer","make the plants grow tall","rare_deterministic","krivels",0,"plants"
67,61820,"causals","animal make sleepy",0,"makes CATEGORY sleepy","[99, 99, 100, 99, 100, 100, 100, 97, u'?', 99, 100]",8,10,"prior","M",-99,"herb","make the animals sleepy","common_deterministic","zorbs",0.94,"animals"
67,61820,"causals","animal make sleepy",0,"makes CATEGORY sleepy","[99, 99, 100, 99, 100, 100, 100, 97, u'?', 99, 100]",8,10,"prior","N",-99,"herb","make the animals sleepy","common_deterministic","zorbs",0.94,"animals"
67,61820,"causals","animal make sleepy",0,"makes CATEGORY sleepy","[99, 99, 100, 99, 100, 100, 100, 97, u'?', 99, 100]",8,10,"prior","P",-99,"herb","make the animals sleepy","common_deterministic","zorbs",0.94,"animals"
67,61820,"causals","animal make sleepy",0,"makes CATEGORY sleepy","[99, 99, 100, 99, 100, 100, 100, 97, u'?', 99, 100]",8,10,"prior","Q",-99,"herb","make the animals sleepy","common_deterministic","zorbs",0.94,"animals"
67,61820,"causals","animal make sleepy",0,"makes CATEGORY sleepy","[99, 99, 100, 99, 100, 100, 100, 97, u'?', 99, 100]",8,10,"prior","R",-99,"herb","make the animals sleepy","common_deterministic","zorbs",0.94,"animals"
68,151717,"causals","animal make sleepy",0,"makes CATEGORY sleepy","[20, 21, 22, 20, u'?', 22, 20, 18, 18, 17, 22]",4,10,"prior","M",-99,"herb","make the animals sleepy","common_weak","zorbs",0.15,"animals"
68,151717,"causals","animal make sleepy",0,"makes CATEGORY sleepy","[20, 21, 22, 20, u'?', 22, 20, 18, 18, 17, 22]",4,10,"prior","N",-99,"herb","make the animals sleepy","common_weak","zorbs",0.17,"animals"
68,151717,"causals","animal make sleepy",0,"makes CATEGORY sleepy","[20, 21, 22, 20, u'?', 22, 20, 18, 18, 17, 22]",4,10,"prior","P",-99,"herb","make the animals sleepy","common_weak","zorbs",0.16,"animals"
68,151717,"causals","animal make sleepy",0,"makes CATEGORY sleepy","[20, 21, 22, 20, u'?', 22, 20, 18, 18, 17, 22]",4,10,"prior","Q",-99,"herb","make the animals sleepy","common_weak","zorbs",0.16,"animals"
68,151717,"causals","animal make sleepy",0,"makes CATEGORY sleepy","[20, 21, 22, 20, u'?', 22, 20, 18, 18, 17, 22]",4,10,"prior","R",-99,"herb","make the animals sleepy","common_weak","zorbs",0.18,"animals"
69,87953,"causals","plant grow tall",0,"makes CATEGORY grow tall","[100, 100, 100, 99, u'?', 100, 100, 99, 100, 100, 98]",4,10,"prior","M",-99,"fertilizer","make the plants grow tall","common_deterministic","dorbs",1,"plants"
69,87953,"causals","plant grow tall",0,"makes CATEGORY grow tall","[100, 100, 100, 99, u'?', 100, 100, 99, 100, 100, 98]",4,10,"prior","N",-99,"fertilizer","make the plants grow tall","common_deterministic","dorbs",1,"plants"
69,87953,"causals","plant grow tall",0,"makes CATEGORY grow tall","[100, 100, 100, 99, u'?', 100, 100, 99, 100, 100, 98]",4,10,"prior","P",-99,"fertilizer","make the plants grow tall","common_deterministic","dorbs",1,"plants"
69,87953,"causals","plant grow tall",0,"makes CATEGORY grow tall","[100, 100, 100, 99, u'?', 100, 100, 99, 100, 100, 98]",4,10,"prior","Q",-99,"fertilizer","make the plants grow tall","common_deterministic","dorbs",1,"plants"
69,87953,"causals","plant grow tall",0,"makes CATEGORY grow tall","[100, 100, 100, 99, u'?', 100, 100, 99, 100, 100, 98]",4,10,"prior","R",-99,"fertilizer","make the plants grow tall","common_deterministic","dorbs",1,"plants"
70,77306,"causals","plant grow tall",0,"makes CATEGORY grow tall","[0, 0, u'?', 1, 0, 0, 100, 3, 1, 99, 100]",2,10,"prior","M",-99,"fertilizer","make the plants grow tall","rare_deterministic","morseths",0.05,"plants"
70,77306,"causals","plant grow tall",0,"makes CATEGORY grow tall","[0, 0, u'?', 1, 0, 0, 100, 3, 1, 99, 100]",2,10,"prior","N",-99,"fertilizer","make the plants grow tall","rare_deterministic","morseths",0.07,"plants"
70,77306,"causals","plant grow tall",0,"makes CATEGORY grow tall","[0, 0, u'?', 1, 0, 0, 100, 3, 1, 99, 100]",2,10,"prior","P",-99,"fertilizer","make the plants grow tall","rare_deterministic","morseths",0.1,"plants"
70,77306,"causals","plant grow tall",0,"makes CATEGORY grow tall","[0, 0, u'?', 1, 0, 0, 100, 3, 1, 99, 100]",2,10,"prior","Q",-99,"fertilizer","make the plants grow tall","rare_deterministic","morseths",0.12,"plants"
70,77306,"causals","plant grow tall",0,"makes CATEGORY grow tall","[0, 0, u'?', 1, 0, 0, 100, 3, 1, 99, 100]",2,10,"prior","R",-99,"fertilizer","make the plants grow tall","rare_deterministic","morseths",0.07,"plants"
71,189567,"causals","animal make sleepy",0,"makes CATEGORY sleepy","[16, 21, u'?', 21, 21, 20, 20, 20, 21, 19, 20]",2,10,"prior","M",-99,"herb","make the animals sleepy","common_weak","taifels",0.23,"animals"
71,189567,"causals","animal make sleepy",0,"makes CATEGORY sleepy","[16, 21, u'?', 21, 21, 20, 20, 20, 21, 19, 20]",2,10,"prior","N",-99,"herb","make the animals sleepy","common_weak","taifels",0.29,"animals"
71,189567,"causals","animal make sleepy",0,"makes CATEGORY sleepy","[16, 21, u'?', 21, 21, 20, 20, 20, 21, 19, 20]",2,10,"prior","P",-99,"herb","make the animals sleepy","common_weak","taifels",0.25,"animals"
71,189567,"causals","animal make sleepy",0,"makes CATEGORY sleepy","[16, 21, u'?', 21, 21, 20, 20, 20, 21, 19, 20]",2,10,"prior","Q",-99,"herb","make the animals sleepy","common_weak","taifels",0.29,"animals"
71,189567,"causals","animal make sleepy",0,"makes CATEGORY sleepy","[16, 21, u'?', 21, 21, 20, 20, 20, 21, 19, 20]",2,10,"prior","R",-99,"herb","make the animals sleepy","common_weak","taifels",0.26,"animals"
72,91583,"causals","plant grow tall",0,"makes CATEGORY grow tall","[2, 0, 99, u'?', 100, 1, 100, 0, 0, 0, 0]",3,10,"prior","M",-99,"fertilizer","make the plants grow tall","rare_deterministic","ackles",0,"plants"
72,91583,"causals","plant grow tall",0,"makes CATEGORY grow tall","[2, 0, 99, u'?', 100, 1, 100, 0, 0, 0, 0]",3,10,"prior","N",-99,"fertilizer","make the plants grow tall","rare_deterministic","ackles",0.94,"plants"
72,91583,"causals","plant grow tall",0,"makes CATEGORY grow tall","[2, 0, 99, u'?', 100, 1, 100, 0, 0, 0, 0]",3,10,"prior","P",-99,"fertilizer","make the plants grow tall","rare_deterministic","ackles",1,"plants"
72,91583,"causals","plant grow tall",0,"makes CATEGORY grow tall","[2, 0, 99, u'?', 100, 1, 100, 0, 0, 0, 0]",3,10,"prior","Q",-99,"fertilizer","make the plants grow tall","rare_deterministic","ackles",1,"plants"
72,91583,"causals","plant grow tall",0,"makes CATEGORY grow tall","[2, 0, 99, u'?', 100, 1, 100, 0, 0, 0, 0]",3,10,"prior","R",-99,"fertilizer","make the plants grow tall","rare_deterministic","ackles",0.05,"plants"
73,49241,"causals","animal make sleepy",0,"makes CATEGORY sleepy","[0, u'?', 0, 23, 1, 0, 21, 1, 24, 0, 0]",1,10,"prior","M",-99,"herb","make the animals sleepy","rare_weak","morseths",0,"animals"
73,49241,"causals","animal make sleepy",0,"makes CATEGORY sleepy","[0, u'?', 0, 23, 1, 0, 21, 1, 24, 0, 0]",1,10,"prior","N",-99,"herb","make the animals sleepy","rare_weak","morseths",0.08,"animals"
73,49241,"causals","animal make sleepy",0,"makes CATEGORY sleepy","[0, u'?', 0, 23, 1, 0, 21, 1, 24, 0, 0]",1,10,"prior","P",-99,"herb","make the animals sleepy","rare_weak","morseths",0,"animals"
73,49241,"causals","animal make sleepy",0,"makes CATEGORY sleepy","[0, u'?', 0, 23, 1, 0, 21, 1, 24, 0, 0]",1,10,"prior","Q",-99,"herb","make the animals sleepy","rare_weak","morseths",0.15,"animals"
73,49241,"causals","animal make sleepy",0,"makes CATEGORY sleepy","[0, u'?', 0, 23, 1, 0, 21, 1, 24, 0, 0]",1,10,"prior","R",-99,"herb","make the animals sleepy","rare_weak","morseths",0,"animals"
74,100507,"causals","plant grow tall",0,"makes CATEGORY grow tall","[0, 100, 0, 0, u'?', 2, 100, 0, 100, 1, 0]",4,10,"prior","M",-99,"fertilizer","make the plants grow tall","rare_deterministic","glippets",0.98,"plants"
74,100507,"causals","plant grow tall",0,"makes CATEGORY grow tall","[0, 100, 0, 0, u'?', 2, 100, 0, 100, 1, 0]",4,10,"prior","N",-99,"fertilizer","make the plants grow tall","rare_deterministic","glippets",0.02,"plants"
74,100507,"causals","plant grow tall",0,"makes CATEGORY grow tall","[0, 100, 0, 0, u'?', 2, 100, 0, 100, 1, 0]",4,10,"prior","P",-99,"fertilizer","make the plants grow tall","rare_deterministic","glippets",0.03,"plants"
74,100507,"causals","plant grow tall",0,"makes CATEGORY grow tall","[0, 100, 0, 0, u'?', 2, 100, 0, 100, 1, 0]",4,10,"prior","Q",-99,"fertilizer","make the plants grow tall","rare_deterministic","glippets",0,"plants"
74,100507,"causals","plant grow tall",0,"makes CATEGORY grow tall","[0, 100, 0, 0, u'?', 2, 100, 0, 100, 1, 0]",4,10,"prior","R",-99,"fertilizer","make the plants grow tall","rare_deterministic","glippets",0.98,"plants"
75,210775,"causals","plant grow tall",0,"makes CATEGORY grow tall","[19, 20, 23, 23, 19, 22, 18, u'?', 19, 22, 18]",7,10,"prior","M",-99,"fertilizer","make the plants grow tall","common_weak","morseths",0.26,"plants"
75,210775,"causals","plant grow tall",0,"makes CATEGORY grow tall","[19, 20, 23, 23, 19, 22, 18, u'?', 19, 22, 18]",7,10,"prior","N",-99,"fertilizer","make the plants grow tall","common_weak","morseths",0.3,"plants"
75,210775,"causals","plant grow tall",0,"makes CATEGORY grow tall","[19, 20, 23, 23, 19, 22, 18, u'?', 19, 22, 18]",7,10,"prior","P",-99,"fertilizer","make the plants grow tall","common_weak","morseths",0.29,"plants"
75,210775,"causals","plant grow tall",0,"makes CATEGORY grow tall","[19, 20, 23, 23, 19, 22, 18, u'?', 19, 22, 18]",7,10,"prior","Q",-99,"fertilizer","make the plants grow tall","common_weak","morseths",0.25,"plants"
75,210775,"causals","plant grow tall",0,"makes CATEGORY grow tall","[19, 20, 23, 23, 19, 22, 18, u'?', 19, 22, 18]",7,10,"prior","R",-99,"fertilizer","make the plants grow tall","common_weak","morseths",0.28,"plants"
76,53005,"causals","plant grow tall",0,"makes CATEGORY grow tall","[99, 0, u'?', 0, 0, 0, 0, 0, 100, 100, 1]",2,10,"prior","M",-99,"fertilizer","make the plants grow tall","rare_deterministic","ackles",0.99,"plants"
76,53005,"causals","plant grow tall",0,"makes CATEGORY grow tall","[99, 0, u'?', 0, 0, 0, 0, 0, 100, 100, 1]",2,10,"prior","N",-99,"fertilizer","make the plants grow tall","rare_deterministic","ackles",1,"plants"
76,53005,"causals","plant grow tall",0,"makes CATEGORY grow tall","[99, 0, u'?', 0, 0, 0, 0, 0, 100, 100, 1]",2,10,"prior","P",-99,"fertilizer","make the plants grow tall","rare_deterministic","ackles",0.02,"plants"
76,53005,"causals","plant grow tall",0,"makes CATEGORY grow tall","[99, 0, u'?', 0, 0, 0, 0, 0, 100, 100, 1]",2,10,"prior","Q",-99,"fertilizer","make the plants grow tall","rare_deterministic","ackles",0.01,"plants"
76,53005,"causals","plant grow tall",0,"makes CATEGORY grow tall","[99, 0, u'?', 0, 0, 0, 0, 0, 100, 100, 1]",2,10,"prior","R",-99,"fertilizer","make the plants grow tall","rare_deterministic","ackles",0.02,"plants"
77,160418,"causals","animal make sleepy",0,"makes CATEGORY sleepy","[0, 20, u'?', 22, 1, 0, 0, 2, 0, 20, 0]",2,10,"prior","M",-99,"herb","make the animals sleepy","rare_weak","kazzes",0.01,"animals"
77,160418,"causals","animal make sleepy",0,"makes CATEGORY sleepy","[0, 20, u'?', 22, 1, 0, 0, 2, 0, 20, 0]",2,10,"prior","N",-99,"herb","make the animals sleepy","rare_weak","kazzes",0.14,"animals"
77,160418,"causals","animal make sleepy",0,"makes CATEGORY sleepy","[0, 20, u'?', 22, 1, 0, 0, 2, 0, 20, 0]",2,10,"prior","P",-99,"herb","make the animals sleepy","rare_weak","kazzes",0.01,"animals"
77,160418,"causals","animal make sleepy",0,"makes CATEGORY sleepy","[0, 20, u'?', 22, 1, 0, 0, 2, 0, 20, 0]",2,10,"prior","Q",-99,"herb","make the animals sleepy","rare_weak","kazzes",0.02,"animals"
77,160418,"causals","animal make sleepy",0,"makes CATEGORY sleepy","[0, 20, u'?', 22, 1, 0, 0, 2, 0, 20, 0]",2,10,"prior","R",-99,"herb","make the animals sleepy","rare_weak","kazzes",0.16,"animals"
78,201998,"causals","plant grow tall",0,"makes CATEGORY grow tall","[19, 0, 0, 0, 21, u'?', 0, 2, 0, 17, 0]",5,10,"prior","M",-99,"fertilizer","make the plants grow tall","rare_weak","dorbs",0.04,"plants"
78,201998,"causals","plant grow tall",0,"makes CATEGORY grow tall","[19, 0, 0, 0, 21, u'?', 0, 2, 0, 17, 0]",5,10,"prior","N",-99,"fertilizer","make the plants grow tall","rare_weak","dorbs",0.02,"plants"
78,201998,"causals","plant grow tall",0,"makes CATEGORY grow tall","[19, 0, 0, 0, 21, u'?', 0, 2, 0, 17, 0]",5,10,"prior","P",-99,"fertilizer","make the plants grow tall","rare_weak","dorbs",0.01,"plants"
78,201998,"causals","plant grow tall",0,"makes CATEGORY grow tall","[19, 0, 0, 0, 21, u'?', 0, 2, 0, 17, 0]",5,10,"prior","Q",-99,"fertilizer","make the plants grow tall","rare_weak","dorbs",0.15,"plants"
78,201998,"causals","plant grow tall",0,"makes CATEGORY grow tall","[19, 0, 0, 0, 21, u'?', 0, 2, 0, 17, 0]",5,10,"prior","R",-99,"fertilizer","make the plants grow tall","rare_weak","dorbs",0.04,"plants"
79,78344,"causals","animal make sleepy",0,"makes CATEGORY sleepy","[1, 1, 0, 0, 100, 1, u'?', 98, 1, 0, 98]",6,10,"prior","M",-99,"herb","make the animals sleepy","rare_deterministic","mooks",0.04,"animals"
79,78344,"causals","animal make sleepy",0,"makes CATEGORY sleepy","[1, 1, 0, 0, 100, 1, u'?', 98, 1, 0, 98]",6,10,"prior","N",-99,"herb","make the animals sleepy","rare_deterministic","mooks",0.95,"animals"
79,78344,"causals","animal make sleepy",0,"makes CATEGORY sleepy","[1, 1, 0, 0, 100, 1, u'?', 98, 1, 0, 98]",6,10,"prior","P",-99,"herb","make the animals sleepy","rare_deterministic","mooks",0.04,"animals"
79,78344,"causals","animal make sleepy",0,"makes CATEGORY sleepy","[1, 1, 0, 0, 100, 1, u'?', 98, 1, 0, 98]",6,10,"prior","Q",-99,"herb","make the animals sleepy","rare_deterministic","mooks",0,"animals"
79,78344,"causals","animal make sleepy",0,"makes CATEGORY sleepy","[1, 1, 0, 0, 100, 1, u'?', 98, 1, 0, 98]",6,10,"prior","R",-99,"herb","make the animals sleepy","rare_deterministic","mooks",0.06,"animals"
80,269704,"causals","animal make sleepy",0,"makes CATEGORY sleepy","[1, 100, u'?', 0, 98, 0, 0, 0, 1, 98, 0]",2,10,"prior","M",-99,"herb","make the animals sleepy","rare_deterministic","thups",0,"animals"
80,269704,"causals","animal make sleepy",0,"makes CATEGORY sleepy","[1, 100, u'?', 0, 98, 0, 0, 0, 1, 98, 0]",2,10,"prior","N",-99,"herb","make the animals sleepy","rare_deterministic","thups",0,"animals"
80,269704,"causals","animal make sleepy",0,"makes CATEGORY sleepy","[1, 100, u'?', 0, 98, 0, 0, 0, 1, 98, 0]",2,10,"prior","P",-99,"herb","make the animals sleepy","rare_deterministic","thups",0.03,"animals"
80,269704,"causals","animal make sleepy",0,"makes CATEGORY sleepy","[1, 100, u'?', 0, 98, 0, 0, 0, 1, 98, 0]",2,10,"prior","Q",-99,"herb","make the animals sleepy","rare_deterministic","thups",1,"animals"
80,269704,"causals","animal make sleepy",0,"makes CATEGORY sleepy","[1, 100, u'?', 0, 98, 0, 0, 0, 1, 98, 0]",2,10,"prior","R",-99,"herb","make the animals sleepy","rare_deterministic","thups",0,"animals"
81,39874,"causals","plant grow tall",0,"makes CATEGORY grow tall","[19, 20, 1, 1, 1, 20, 0, u'?', 0, 0, 0]",7,10,"prior","M",-99,"fertilizer","make the plants grow tall","rare_weak","frams",0.05,"plants"
81,39874,"causals","plant grow tall",0,"makes CATEGORY grow tall","[19, 20, 1, 1, 1, 20, 0, u'?', 0, 0, 0]",7,10,"prior","N",-99,"fertilizer","make the plants grow tall","rare_weak","frams",0.05,"plants"
81,39874,"causals","plant grow tall",0,"makes CATEGORY grow tall","[19, 20, 1, 1, 1, 20, 0, u'?', 0, 0, 0]",7,10,"prior","P",-99,"fertilizer","make the plants grow tall","rare_weak","frams",0.05,"plants"
81,39874,"causals","plant grow tall",0,"makes CATEGORY grow tall","[19, 20, 1, 1, 1, 20, 0, u'?', 0, 0, 0]",7,10,"prior","Q",-99,"fertilizer","make the plants grow tall","rare_weak","frams",0.06,"plants"
81,39874,"causals","plant grow tall",0,"makes CATEGORY grow tall","[19, 20, 1, 1, 1, 20, 0, u'?', 0, 0, 0]",7,10,"prior","R",-99,"fertilizer","make the plants grow tall","rare_weak","frams",0.06,"plants"
82,65848,"causals","plant grow tall",0,"makes CATEGORY grow tall","[20, u'?', 18, 22, 20, 18, 19, 18, 20, 23, 19]",1,10,"prior","M",-99,"fertilizer","make the plants grow tall","common_weak","dorbs",0.32,"plants"
82,65848,"causals","plant grow tall",0,"makes CATEGORY grow tall","[20, u'?', 18, 22, 20, 18, 19, 18, 20, 23, 19]",1,10,"prior","N",-99,"fertilizer","make the plants grow tall","common_weak","dorbs",0.31,"plants"
82,65848,"causals","plant grow tall",0,"makes CATEGORY grow tall","[20, u'?', 18, 22, 20, 18, 19, 18, 20, 23, 19]",1,10,"prior","P",-99,"fertilizer","make the plants grow tall","common_weak","dorbs",0.31,"plants"
82,65848,"causals","plant grow tall",0,"makes CATEGORY grow tall","[20, u'?', 18, 22, 20, 18, 19, 18, 20, 23, 19]",1,10,"prior","Q",-99,"fertilizer","make the plants grow tall","common_weak","dorbs",0.31,"plants"
82,65848,"causals","plant grow tall",0,"makes CATEGORY grow tall","[20, u'?', 18, 22, 20, 18, 19, 18, 20, 23, 19]",1,10,"prior","R",-99,"fertilizer","make the plants grow tall","common_weak","dorbs",0.31,"plants"
83,105042,"causals","animal make sleepy",0,"makes CATEGORY sleepy","[100, 98, 99, u'?', 99, 100, 100, 100, 100, 100, 99]",3,10,"prior","M",-99,"herb","make the animals sleepy","common_deterministic","ackles",0.95,"animals"
83,105042,"causals","animal make sleepy",0,"makes CATEGORY sleepy","[100, 98, 99, u'?', 99, 100, 100, 100, 100, 100, 99]",3,10,"prior","N",-99,"herb","make the animals sleepy","common_deterministic","ackles",0.96,"animals"
83,105042,"causals","animal make sleepy",0,"makes CATEGORY sleepy","[100, 98, 99, u'?', 99, 100, 100, 100, 100, 100, 99]",3,10,"prior","P",-99,"herb","make the animals sleepy","common_deterministic","ackles",0.95,"animals"
83,105042,"causals","animal make sleepy",0,"makes CATEGORY sleepy","[100, 98, 99, u'?', 99, 100, 100, 100, 100, 100, 99]",3,10,"prior","Q",-99,"herb","make the animals sleepy","common_deterministic","ackles",0.99,"animals"
83,105042,"causals","animal make sleepy",0,"makes CATEGORY sleepy","[100, 98, 99, u'?', 99, 100, 100, 100, 100, 100, 99]",3,10,"prior","R",-99,"herb","make the animals sleepy","common_deterministic","ackles",0.93,"animals"
84,95855,"causals","plant grow tall",0,"makes CATEGORY grow tall","[20, 19, u'?', 21, 22, 20, 19, 19, 20, 19, 19]",2,10,"prior","M",-99,"fertilizer","make the plants grow tall","common_weak","kweps",0.19,"plants"
84,95855,"causals","plant grow tall",0,"makes CATEGORY grow tall","[20, 19, u'?', 21, 22, 20, 19, 19, 20, 19, 19]",2,10,"prior","N",-99,"fertilizer","make the plants grow tall","common_weak","kweps",0.19,"plants"
84,95855,"causals","plant grow tall",0,"makes CATEGORY grow tall","[20, 19, u'?', 21, 22, 20, 19, 19, 20, 19, 19]",2,10,"prior","P",-99,"fertilizer","make the plants grow tall","common_weak","kweps",0.19,"plants"
84,95855,"causals","plant grow tall",0,"makes CATEGORY grow tall","[20, 19, u'?', 21, 22, 20, 19, 19, 20, 19, 19]",2,10,"prior","Q",-99,"fertilizer","make the plants grow tall","common_weak","kweps",0.19,"plants"
84,95855,"causals","plant grow tall",0,"makes CATEGORY grow tall","[20, 19, u'?', 21, 22, 20, 19, 19, 20, 19, 19]",2,10,"prior","R",-99,"fertilizer","make the plants grow tall","common_weak","kweps",0.19,"plants"
85,113421,"causals","animal make sleepy",0,"makes CATEGORY sleepy","[19, 19, 19, 21, u'?', 19, 20, 20, 20, 20, 19]",4,10,"prior","M",-99,"herb","make the animals sleepy","common_weak","javs",0.19,"animals"
85,113421,"causals","animal make sleepy",0,"makes CATEGORY sleepy","[19, 19, 19, 21, u'?', 19, 20, 20, 20, 20, 19]",4,10,"prior","N",-99,"herb","make the animals sleepy","common_weak","javs",0.19,"animals"
85,113421,"causals","animal make sleepy",0,"makes CATEGORY sleepy","[19, 19, 19, 21, u'?', 19, 20, 20, 20, 20, 19]",4,10,"prior","P",-99,"herb","make the animals sleepy","common_weak","javs",0.2,"animals"
85,113421,"causals","animal make sleepy",0,"makes CATEGORY sleepy","[19, 19, 19, 21, u'?', 19, 20, 20, 20, 20, 19]",4,10,"prior","Q",-99,"herb","make the animals sleepy","common_weak","javs",0.19,"animals"
85,113421,"causals","animal make sleepy",0,"makes CATEGORY sleepy","[19, 19, 19, 21, u'?', 19, 20, 20, 20, 20, 19]",4,10,"prior","R",-99,"herb","make the animals sleepy","common_weak","javs",0.2,"animals"
86,338222,"causals","animal make sleepy",0,"makes CATEGORY sleepy","[21, 20, u'?', 21, 18, 18, 21, 19, 20, 22, 21]",2,10,"prior","M",-99,"herb","make the animals sleepy","common_weak","kazzes",0.13,"animals"
86,338222,"causals","animal make sleepy",0,"makes CATEGORY sleepy","[21, 20, u'?', 21, 18, 18, 21, 19, 20, 22, 21]",2,10,"prior","N",-99,"herb","make the animals sleepy","common_weak","kazzes",0.12,"animals"
86,338222,"causals","animal make sleepy",0,"makes CATEGORY sleepy","[21, 20, u'?', 21, 18, 18, 21, 19, 20, 22, 21]",2,10,"prior","P",-99,"herb","make the animals sleepy","common_weak","kazzes",0.13,"animals"
86,338222,"causals","animal make sleepy",0,"makes CATEGORY sleepy","[21, 20, u'?', 21, 18, 18, 21, 19, 20, 22, 21]",2,10,"prior","Q",-99,"herb","make the animals sleepy","common_weak","kazzes",0.12,"animals"
86,338222,"causals","animal make sleepy",0,"makes CATEGORY sleepy","[21, 20, u'?', 21, 18, 18, 21, 19, 20, 22, 21]",2,10,"prior","R",-99,"herb","make the animals sleepy","common_weak","kazzes",0.16,"animals"
87,108326,"causals","animal make sleepy",0,"makes CATEGORY sleepy","[19, u'?', 22, 22, 18, 19, 21, 21, 19, 17, 19]",1,10,"prior","M",-99,"herb","make the animals sleepy","common_weak","trufts",0.17,"animals"
87,108326,"causals","animal make sleepy",0,"makes CATEGORY sleepy","[19, u'?', 22, 22, 18, 19, 21, 21, 19, 17, 19]",1,10,"prior","N",-99,"herb","make the animals sleepy","common_weak","trufts",0.17,"animals"
87,108326,"causals","animal make sleepy",0,"makes CATEGORY sleepy","[19, u'?', 22, 22, 18, 19, 21, 21, 19, 17, 19]",1,10,"prior","P",-99,"herb","make the animals sleepy","common_weak","trufts",0.19,"animals"
87,108326,"causals","animal make sleepy",0,"makes CATEGORY sleepy","[19, u'?', 22, 22, 18, 19, 21, 21, 19, 17, 19]",1,10,"prior","Q",-99,"herb","make the animals sleepy","common_weak","trufts",0.17,"animals"
87,108326,"causals","animal make sleepy",0,"makes CATEGORY sleepy","[19, u'?', 22, 22, 18, 19, 21, 21, 19, 17, 19]",1,10,"prior","R",-99,"herb","make the animals sleepy","common_weak","trufts",0.21,"animals"
88,49420,"causals","animal make sleepy",0,"makes CATEGORY sleepy","[19, 1, 0, u'?', 1, 1, 19, 0, 1, 20, 0]",3,10,"prior","M",-99,"herb","make the animals sleepy","rare_weak","krivels",0.11,"animals"
88,49420,"causals","animal make sleepy",0,"makes CATEGORY sleepy","[19, 1, 0, u'?', 1, 1, 19, 0, 1, 20, 0]",3,10,"prior","N",-99,"herb","make the animals sleepy","rare_weak","krivels",0.06,"animals"
88,49420,"causals","animal make sleepy",0,"makes CATEGORY sleepy","[19, 1, 0, u'?', 1, 1, 19, 0, 1, 20, 0]",3,10,"prior","P",-99,"herb","make the animals sleepy","rare_weak","krivels",0.06,"animals"
88,49420,"causals","animal make sleepy",0,"makes CATEGORY sleepy","[19, 1, 0, u'?', 1, 1, 19, 0, 1, 20, 0]",3,10,"prior","Q",-99,"herb","make the animals sleepy","rare_weak","krivels",0,"animals"
88,49420,"causals","animal make sleepy",0,"makes CATEGORY sleepy","[19, 1, 0, u'?', 1, 1, 19, 0, 1, 20, 0]",3,10,"prior","R",-99,"herb","make the animals sleepy","rare_weak","krivels",0.07,"animals"
89,62805,"causals","animal make sleepy",0,"makes CATEGORY sleepy","[0, 23, 0, 17, 0, 18, 0, 0, u'?', 0, 0]",8,10,"prior","M",-99,"herb","make the animals sleepy","rare_weak","taifels",0.24,"animals"
89,62805,"causals","animal make sleepy",0,"makes CATEGORY sleepy","[0, 23, 0, 17, 0, 18, 0, 0, u'?', 0, 0]",8,10,"prior","N",-99,"herb","make the animals sleepy","rare_weak","taifels",0.21,"animals"
89,62805,"causals","animal make sleepy",0,"makes CATEGORY sleepy","[0, 23, 0, 17, 0, 18, 0, 0, u'?', 0, 0]",8,10,"prior","P",-99,"herb","make the animals sleepy","rare_weak","taifels",0.02,"animals"
89,62805,"causals","animal make sleepy",0,"makes CATEGORY sleepy","[0, 23, 0, 17, 0, 18, 0, 0, u'?', 0, 0]",8,10,"prior","Q",-99,"herb","make the animals sleepy","rare_weak","taifels",0.16,"animals"
89,62805,"causals","animal make sleepy",0,"makes CATEGORY sleepy","[0, 23, 0, 17, 0, 18, 0, 0, u'?', 0, 0]",8,10,"prior","R",-99,"herb","make the animals sleepy","rare_weak","taifels",0.02,"animals"
90,112383,"causals","plant grow tall",0,"makes CATEGORY grow tall","[0, 0, 100, 0, 100, 100, 0, u'?', 1, 0, 0]",7,10,"prior","M",-99,"fertilizer","make the plants grow tall","rare_deterministic","krivels",0.15,"plants"
90,112383,"causals","plant grow tall",0,"makes CATEGORY grow tall","[0, 0, 100, 0, 100, 100, 0, u'?', 1, 0, 0]",7,10,"prior","N",-99,"fertilizer","make the plants grow tall","rare_deterministic","krivels",0.21,"plants"
90,112383,"causals","plant grow tall",0,"makes CATEGORY grow tall","[0, 0, 100, 0, 100, 100, 0, u'?', 1, 0, 0]",7,10,"prior","P",-99,"fertilizer","make the plants grow tall","rare_deterministic","krivels",0.1,"plants"
90,112383,"causals","plant grow tall",0,"makes CATEGORY grow tall","[0, 0, 100, 0, 100, 100, 0, u'?', 1, 0, 0]",7,10,"prior","Q",-99,"fertilizer","make the plants grow tall","rare_deterministic","krivels",0.33,"plants"
90,112383,"causals","plant grow tall",0,"makes CATEGORY grow tall","[0, 0, 100, 0, 100, 100, 0, u'?', 1, 0, 0]",7,10,"prior","R",-99,"fertilizer","make the plants grow tall","rare_deterministic","krivels",0.23,"plants"
91,53609,"causals","plant grow tall",0,"makes CATEGORY grow tall","[21, u'?', 19, 20, 21, 21, 19, 19, 19, 19, 22]",1,10,"prior","M",-99,"fertilizer","make the plants grow tall","common_weak","wugs",0.23,"plants"
91,53609,"causals","plant grow tall",0,"makes CATEGORY grow tall","[21, u'?', 19, 20, 21, 21, 19, 19, 19, 19, 22]",1,10,"prior","N",-99,"fertilizer","make the plants grow tall","common_weak","wugs",0.23,"plants"
91,53609,"causals","plant grow tall",0,"makes CATEGORY grow tall","[21, u'?', 19, 20, 21, 21, 19, 19, 19, 19, 22]",1,10,"prior","P",-99,"fertilizer","make the plants grow tall","common_weak","wugs",0.23,"plants"
91,53609,"causals","plant grow tall",0,"makes CATEGORY grow tall","[21, u'?', 19, 20, 21, 21, 19, 19, 19, 19, 22]",1,10,"prior","Q",-99,"fertilizer","make the plants grow tall","common_weak","wugs",0.23,"plants"
91,53609,"causals","plant grow tall",0,"makes CATEGORY grow tall","[21, u'?', 19, 20, 21, 21, 19, 19, 19, 19, 22]",1,10,"prior","R",-99,"fertilizer","make the plants grow tall","common_weak","wugs",0.25,"plants"
92,52518,"causals","animal make sleepy",0,"makes CATEGORY sleepy","[98, u'?', 100, 2, 1, 99, 0, 0, 0, 0, 0]",1,10,"prior","M",-99,"herb","make the animals sleepy","rare_deterministic","lorches",0.01,"animals"
92,52518,"causals","animal make sleepy",0,"makes CATEGORY sleepy","[98, u'?', 100, 2, 1, 99, 0, 0, 0, 0, 0]",1,10,"prior","N",-99,"herb","make the animals sleepy","rare_deterministic","lorches",0,"animals"
92,52518,"causals","animal make sleepy",0,"makes CATEGORY sleepy","[98, u'?', 100, 2, 1, 99, 0, 0, 0, 0, 0]",1,10,"prior","P",-99,"herb","make the animals sleepy","rare_deterministic","lorches",0.02,"animals"
92,52518,"causals","animal make sleepy",0,"makes CATEGORY sleepy","[98, u'?', 100, 2, 1, 99, 0, 0, 0, 0, 0]",1,10,"prior","Q",-99,"herb","make the animals sleepy","rare_deterministic","lorches",0,"animals"
92,52518,"causals","animal make sleepy",0,"makes CATEGORY sleepy","[98, u'?', 100, 2, 1, 99, 0, 0, 0, 0, 0]",1,10,"prior","R",-99,"herb","make the animals sleepy","rare_deterministic","lorches",0,"animals"
93,83890,"causals","plant grow tall",0,"makes CATEGORY grow tall","[99, u'?', 1, 100, 99, 2, 0, 0, 0, 0, 1]",1,10,"prior","M",-99,"fertilizer","make the plants grow tall","rare_deterministic","krivels",1,"plants"
93,83890,"causals","plant grow tall",0,"makes CATEGORY grow tall","[99, u'?', 1, 100, 99, 2, 0, 0, 0, 0, 1]",1,10,"prior","N",-99,"fertilizer","make the plants grow tall","rare_deterministic","krivels",1,"plants"
93,83890,"causals","plant grow tall",0,"makes CATEGORY grow tall","[99, u'?', 1, 100, 99, 2, 0, 0, 0, 0, 1]",1,10,"prior","P",-99,"fertilizer","make the plants grow tall","rare_deterministic","krivels",0,"plants"
93,83890,"causals","plant grow tall",0,"makes CATEGORY grow tall","[99, u'?', 1, 100, 99, 2, 0, 0, 0, 0, 1]",1,10,"prior","Q",-99,"fertilizer","make the plants grow tall","rare_deterministic","krivels",0,"plants"
93,83890,"causals","plant grow tall",0,"makes CATEGORY grow tall","[99, u'?', 1, 100, 99, 2, 0, 0, 0, 0, 1]",1,10,"prior","R",-99,"fertilizer","make the plants grow tall","rare_deterministic","krivels",0,"plants"
94,79376,"causals","plant grow tall",0,"makes CATEGORY grow tall","[0, 0, 2, 0, 0, 0, u'?', 95, 100, 0, 100]",6,10,"prior","M",-99,"fertilizer","make the plants grow tall","rare_deterministic","zorbs",0,"plants"
