"workerid","category","trial_type","evidenceStatement","characterGender","freqLevel","characterName","habitual","n_instances","time_period","rt","response","n_times","log_times"
0,"clothing","truthJudge","wore a bra","male",NA,"Jacob","wears a bra",3,"6 months",4782,"agree-key",30,3.40119738166216
0,"entertainment","truthJudge","watched space launches","male",NA,"Lewis","watches space launches",3,"month",2034,"agree-key",180,5.19295685089021
0,"food","truthJudge","ate caviar","male",NA,"Ben","eats caviar",3,"year",4103,"agree-key",15,2.70805020110221
0,"clothing","truthJudge","wore a suit","female",NA,"Ashley","wears a suit",3,"week",2541,"agree-key",780,6.65929391968364
0,"entertainment","truthJudge","went to the ballet","female",NA,"Theresa","goes to the ballet",3,"year",2348,"agree-key",15,2.70805020110221
0,"food","truthJudge","smoked cigarettes","female",NA,"Claire","smokes cigarettes",3,"year",1732,"agree-key",15,2.70805020110221
0,"employment","truthJudge","sold something on eBay","male",NA,"Martin","sells things on eBay",3,"year",2373,"agree-key",15,2.70805020110221
0,"employment","truthJudge","volunteered for a soup kitchen","female",NA,"Brooke","volunteers for soup kitchens",3,"year",2350,"agree-key",15,2.70805020110221
0,"clothing","truthJudge","wore socks","female",NA,"Shannon","wears socks",3,"week",1916,"agree-key",780,6.65929391968364
0,"hobby","truthJudge","played the banjo","female",NA,"Melinda","plays the banjo",3,"2 years",1717,"agree-key",7.5,2.01490302054226
0,"hobby","truthJudge","played tennis","female",NA,"Janet","plays tennis",3,"5 years",2950,"disagree-key",3,1.09861228866811
0,"clothing","truthJudge","wore slacks","male",NA,"Stephen","wears slacks",3,"month",1571,"agree-key",180,5.19295685089021
0,"food","truthJudge","drank coffee","female",NA,"Natalie","drinks coffee",3,"2 weeks",1444,"agree-key",390,5.96614673912369
0,"employment","truthJudge","stole a car","female",NA,"Elizabeth","steals cars",3,"5 years",1062,"disagree-key",3,1.09861228866811
0,"food","truthJudge","did cocaine","female",NA,"Nicole","does cocaine",3,"week",1413,"agree-key",780,6.65929391968364
0,"food","truthJudge","drank beer","male",NA,"Ronald","drinks beer",3,"week",1979,"agree-key",780,6.65929391968364
0,"clothing","truthJudge","wore socks","male",NA,"Gabriel","wears socks",3,"month",1681,"agree-key",180,5.19295685089021
0,"entertainment","truthJudge","listened to Pandora","female",NA,"Julia","listens to Pandora",3,"year",3791,"agree-key",15,2.70805020110221
0,"clothing","truthJudge","wore a bra","female",NA,"Amber","wears a bra",3,"6 months",1057,"agree-key",30,3.40119738166216
0,"employment","truthJudge","volunteered for a political campaign","female",NA,"Laura","volunteers for political campaigns",3,"year",3070,"agree-key",15,2.70805020110221
0,"employment","truthJudge","stole chewing gum","male",NA,"Josh","steals chewing gum",3,"5 years",2939,"agree-key",3,1.09861228866811
0,"food","truthJudge","did cocaine","male",NA,"Kyle","does cocaine",3,"5 years",2670,"agree-key",3,1.09861228866811
0,"entertainment","truthJudge","watched professional football","male",NA,"Greg","watches professional football",3,"year",2331,"agree-key",15,2.70805020110221
0,"hobby","truthJudge","climbed mountains","female",NA,"Kim","climbs mountains",3,"5 years",1712,"agree-key",3,1.09861228866811
0,"employment","truthJudge","sold a company","male",NA,"Michael","sells companies",3,"5 years",2829,"agree-key",3,1.09861228866811
0,"hobby","truthJudge","hiked","female",NA,"Maya","hikes",3,"2 months",1309,"agree-key",90,4.49980967033027
0,"food","truthJudge","drank coffee","male",NA,"John","drinks coffee",3,"month",1456,"agree-key",180,5.19295685089021
0,"food","truthJudge","drank beer","female",NA,"Sophia","drinks beer",3,"year",3010,"agree-key",15,2.70805020110221
0,"hobby","truthJudge","ran","female",NA,"Kristina","runs",3,"year",2232,"agree-key",15,2.70805020110221
0,"entertainment","truthJudge","listened to live music","female",NA,"Linda","listens to live music",3,"month",1901,"agree-key",180,5.19295685089021
0,"entertainment","truthJudge","went to the movies","male",NA,"Lee","goes to the movies",3,"year",2856,"agree-key",15,2.70805020110221
0,"employment","truthJudge","wrote a novel","male",NA,"Christopher","writes novels",3,"year",2102,"agree-key",15,2.70805020110221
0,"food","truthJudge","ate peanut butter","male",NA,"David","eats peanut butter",3,"month",1542,"agree-key",180,5.19295685089021
0,"employment","truthJudge","wrote a poem","male",NA,"Fred","writes poems",3,"year",2724,"agree-key",15,2.70805020110221
0,"clothing","truthJudge","wore a watch","male",NA,"Cameron","wears a watch",3,"month",1593,"agree-key",180,5.19295685089021
0,"food","truthJudge","smoked marijuana","female",NA,"Elisa","smokes marijuana",3,"week",1874,"agree-key",780,6.65929391968364
0,"clothing","truthJudge","wore a suit","male",NA,"Lucas","wears a suit",3,"6 months",1252,"agree-key",30,3.40119738166216
1,"employment","truthJudge","volunteered for a political campaign","male",NA,"Jack","volunteers for political campaigns",3,"5 years",7337,"agree-key",3,1.09861228866811
1,"entertainment","truthJudge","watched professional football","female",NA,"Julia","watches professional football",3,"2 years",6261,"disagree-key",7.5,2.01490302054226
1,"food","truthJudge","smoked cigarettes","male",NA,"Scott","smokes cigarettes",3,"month",3349,"agree-key",180,5.19295685089021
1,"hobby","truthJudge","ran","male",NA,"Stephen","runs",3,"2 months",4038,"disagree-key",90,4.49980967033027
1,"employment","truthJudge","sold something on eBay","female",NA,"Elisa","sells things on eBay",3,"year",2971,"agree-key",15,2.70805020110221
1,"hobby","truthJudge","climbed mountains","male",NA,"Martin","climbs mountains",3,"year",3591,"agree-key",15,2.70805020110221
1,"employment","truthJudge","stole a car","female",NA,"Jennifer","steals cars",3,"month",2558,"agree-key",180,5.19295685089021
1,"food","truthJudge","drank beer","male",NA,"Lewis","drinks beer",3,"year",4902,"agree-key",15,2.70805020110221
1,"clothing","truthJudge","wore a suit","female",NA,"Angela","wears a suit",3,"6 months",5733,"disagree-key",30,3.40119738166216
1,"food","truthJudge","drank beer","female",NA,"Natalie","drinks beer",3,"month",2767,"agree-key",180,5.19295685089021
1,"clothing","truthJudge","wore a bra","female",NA,"Janet","wears a bra",3,"month",3998,"disagree-key",180,5.19295685089021
1,"entertainment","truthJudge","listened to live music","female",NA,"Kristina","listens to live music",3,"month",5957,"agree-key",180,5.19295685089021
1,"employment","truthJudge","wrote a poem","male",NA,"Ted","writes poems",3,"5 years",28568,"agree-key",3,1.09861228866811
1,"entertainment","truthJudge","watched space launches","female",NA,"Kathleen","watches space launches",3,"year",7230,"agree-key",15,2.70805020110221
1,"food","truthJudge","ate peanut butter","male",NA,"William","eats peanut butter",3,"5 years",5982,"disagree-key",3,1.09861228866811
1,"clothing","truthJudge","wore a bra","male",NA,"Tom","wears a bra",3,"month",3798,"agree-key",180,5.19295685089021
1,"entertainment","truthJudge","went to the ballet","female",NA,"Jessica","goes to the ballet",3,"year",3429,"agree-key",15,2.70805020110221
1,"employment","truthJudge","volunteered for a soup kitchen","male",NA,"Michael","volunteers for soup kitchens",3,"year",3134,"agree-key",15,2.70805020110221
1,"food","truthJudge","drank coffee","female",NA,"Sophia","drinks coffee",3,"week",2702,"agree-key",780,6.65929391968364
1,"hobby","truthJudge","hiked","female",NA,"Rebecca","hikes",3,"2 years",2927,"disagree-key",7.5,2.01490302054226
1,"clothing","truthJudge","wore slacks","male",NA,"Lee","wears slacks",3,"6 months",27712,"disagree-key",30,3.40119738166216
1,"clothing","truthJudge","wore socks","male",NA,"Lucas","wears socks",3,"month",2614,"disagree-key",180,5.19295685089021
1,"food","truthJudge","ate caviar","female",NA,"Kelly","eats caviar",3,"year",2198,"agree-key",15,2.70805020110221
1,"entertainment","truthJudge","went to the movies","male",NA,"George","goes to the movies",3,"month",3615,"agree-key",180,5.19295685089021
1,"employment","truthJudge","wrote a novel","male",NA,"Brian","writes novels",3,"year",3086,"agree-key",15,2.70805020110221
1,"entertainment","truthJudge","listened to Pandora","male",NA,"Vince","listens to Pandora",3,"week",3157,"agree-key",780,6.65929391968364
1,"employment","truthJudge","sold a company","male",NA,"Jacob","sells companies",3,"5 years",2830,"agree-key",3,1.09861228866811
1,"hobby","truthJudge","played the banjo","male",NA,"Fred","plays the banjo",3,"2 years",3517,"agree-key",7.5,2.01490302054226
1,"food","truthJudge","did cocaine","female",NA,"Stephanie","does cocaine",3,"month",3222,"agree-key",180,5.19295685089021
1,"clothing","truthJudge","wore socks","female",NA,"Brooke","wears socks",3,"week",6333,"agree-key",780,6.65929391968364
1,"food","truthJudge","did cocaine","male",NA,"Alexander","does cocaine",3,"month",1942,"agree-key",180,5.19295685089021
1,"food","truthJudge","drank coffee","male",NA,"David","drinks coffee",3,"year",2233,"disagree-key",15,2.70805020110221
1,"employment","truthJudge","stole chewing gum","female",NA,"Shannon","steals chewing gum",3,"month",4109,"agree-key",180,5.19295685089021
1,"food","truthJudge","smoked marijuana","female",NA,"Crystal","smokes marijuana",3,"month",2478,"agree-key",180,5.19295685089021
1,"clothing","truthJudge","wore a watch","female",NA,"Maya","wears a watch",3,"week",2750,"agree-key",780,6.65929391968364
1,"hobby","truthJudge","played tennis","female",NA,"Michelle","plays tennis",3,"year",4541,"disagree-key",15,2.70805020110221
1,"clothing","truthJudge","wore a suit","male",NA,"Kyle","wears a suit",3,"week",3319,"agree-key",780,6.65929391968364
2,"entertainment","truthJudge","listened to Pandora","male",NA,"Seth","listens to Pandora",3,"year",13415,"disagree-key",15,2.70805020110221
2,"entertainment","truthJudge","went to the ballet","female",NA,"Claire","goes to the ballet",3,"2 years",5183,"disagree-key",7.5,2.01490302054226
2,"clothing","truthJudge","wore slacks","female",NA,"Rebecca","wears slacks",3,"6 months",5173,"disagree-key",30,3.40119738166216
2,"food","truthJudge","smoked cigarettes","male",NA,"Ben","smokes cigarettes",3,"month",5348,"disagree-key",180,5.19295685089021
2,"food","truthJudge","ate peanut butter","male",NA,"Jack","eats peanut butter",3,"month",10112,"agree-key",180,5.19295685089021
2,"clothing","truthJudge","wore a bra","male",NA,"Stephen","wears a bra",3,"6 months",3487,"disagree-key",30,3.40119738166216
2,"clothing","truthJudge","wore a suit","male",NA,"George","wears a suit",3,"month",6129,"agree-key",180,5.19295685089021
2,"food","truthJudge","did cocaine","male",NA,"Christopher","does cocaine",3,"month",4241,"agree-key",180,5.19295685089021
2,"hobby","truthJudge","hiked","female",NA,"Jennifer","hikes",3,"week",4089,"agree-key",780,6.65929391968364
2,"food","truthJudge","drank coffee","male",NA,"Gabriel","drinks coffee",3,"2 weeks",4057,"agree-key",390,5.96614673912369
2,"hobby","truthJudge","played the banjo","female",NA,"Maya","plays the banjo",3,"2 years",5277,"disagree-key",7.5,2.01490302054226
2,"employment","truthJudge","wrote a novel","male",NA,"Lucas","writes novels",3,"5 years",6637,"agree-key",3,1.09861228866811
2,"clothing","truthJudge","wore socks","male",NA,"Josh","wears socks",3,"month",3263,"disagree-key",180,5.19295685089021
2,"food","truthJudge","drank beer","male",NA,"Brian","drinks beer",3,"year",2466,"disagree-key",15,2.70805020110221
2,"employment","truthJudge","sold a company","male",NA,"Ted","sells companies",3,"year",3722,"agree-key",15,2.70805020110221
2,"employment","truthJudge","sold something on eBay","male",NA,"Tom","sells things on eBay",3,"5 years",3524,"disagree-key",3,1.09861228866811
2,"food","truthJudge","did cocaine","female",NA,"Hillary","does cocaine",3,"year",4385,"disagree-key",15,2.70805020110221
2,"entertainment","truthJudge","listened to live music","female",NA,"Tina","listens to live music",3,"year",5600,"agree-key",15,2.70805020110221
2,"food","truthJudge","drank coffee","female",NA,"Brooke","drinks coffee",3,"week",3957,"agree-key",780,6.65929391968364
2,"employment","truthJudge","stole chewing gum","male",NA,"Vince","steals chewing gum",3,"year",3418,"disagree-key",15,2.70805020110221
2,"clothing","truthJudge","wore a watch","male",NA,"Fred","wears a watch",3,"6 months",2877,"disagree-key",30,3.40119738166216
2,"employment","truthJudge","wrote a poem","male",NA,"Martin","writes poems",3,"5 years",4219,"disagree-key",3,1.09861228866811
2,"hobby","truthJudge","climbed mountains","male",NA,"Cameron","climbs mountains",3,"year",3149,"agree-key",15,2.70805020110221
2,"employment","truthJudge","volunteered for a soup kitchen","female",NA,"Nicole","volunteers for soup kitchens",3,"5 years",3375,"disagree-key",3,1.09861228866811
2,"entertainment","truthJudge","watched professional football","male",NA,"Lewis","watches professional football",3,"year",3422,"disagree-key",15,2.70805020110221
2,"food","truthJudge","drank beer","female",NA,"Michelle","drinks beer",3,"year",2564,"disagree-key",15,2.70805020110221
2,"food","truthJudge","ate caviar","male",NA,"Stephen","eats caviar",3,"month",5741,"agree-key",180,5.19295685089021
2,"clothing","truthJudge","wore socks","female",NA,"Kim","wears socks",3,"week",3120,"agree-key",780,6.65929391968364
2,"hobby","truthJudge","played tennis","male",NA,"Daniel","plays tennis",3,"5 years",2722,"disagree-key",3,1.09861228866811
2,"entertainment","truthJudge","watched space launches","female",NA,"Ashley","watches space launches",3,"month",3860,"agree-key",180,5.19295685089021
2,"employment","truthJudge","stole a car","male",NA,"Anthony","steals cars",3,"year",5251,"agree-key",15,2.70805020110221
2,"clothing","truthJudge","wore a suit","female",NA,"Kristina","wears a suit",3,"month",7643,"agree-key",180,5.19295685089021
2,"entertainment","truthJudge","went to the movies","female",NA,"Natalie","goes to the movies",3,"2 years",2752,"disagree-key",7.5,2.01490302054226
2,"hobby","truthJudge","ran","female",NA,"Esther","runs",3,"year",2290,"disagree-key",15,2.70805020110221
2,"clothing","truthJudge","wore a bra","female",NA,"Janet","wears a bra",3,"week",4830,"agree-key",780,6.65929391968364
2,"employment","truthJudge","volunteered for a political campaign","female",NA,"Melinda","volunteers for political campaigns",3,"5 years",5612,"agree-key",3,1.09861228866811
2,"food","truthJudge","smoked marijuana","female",NA,"Elizabeth","smokes marijuana",3,"year",2865,"disagree-key",15,2.70805020110221
3,"employment","truthJudge","sold something on eBay","female",NA,"Nicole","sells things on eBay",3,"5 years",6403,"agree-key",3,1.09861228866811
3,"employment","truthJudge","stole chewing gum","male",NA,"Lucas","steals chewing gum",3,"5 years",3633,"agree-key",3,1.09861228866811
3,"hobby","truthJudge","played tennis","male",NA,"Martin","plays tennis",3,"year",2640,"disagree-key",15,2.70805020110221
3,"food","truthJudge","did cocaine","male",NA,"Lewis","does cocaine",3,"week",2689,"disagree-key",780,6.65929391968364
3,"employment","truthJudge","volunteered for a soup kitchen","male",NA,"Ben","volunteers for soup kitchens",3,"year",2706,"agree-key",15,2.70805020110221
3,"entertainment","truthJudge","listened to live music","male",NA,"Stephen","listens to live music",3,"week",2449,"agree-key",780,6.65929391968364
3,"food","truthJudge","smoked cigarettes","female",NA,"Kathleen","smokes cigarettes",3,"month",2409,"disagree-key",180,5.19295685089021
3,"clothing","truthJudge","wore a bra","male",NA,"Michael","wears a bra",3,"week",3638,"agree-key",780,6.65929391968364
3,"entertainment","truthJudge","listened to Pandora","male",NA,"Derrick","listens to Pandora",3,"year",2269,"agree-key",15,2.70805020110221
3,"hobby","truthJudge","climbed mountains","male",NA,"Robert","climbs mountains",3,"2 years",4168,"agree-key",7.5,2.01490302054226
3,"clothing","truthJudge","wore a suit","female",NA,"Angela","wears a suit",3,"6 months",2443,"agree-key",30,3.40119738166216
3,"food","truthJudge","drank coffee","male",NA,"Vince","drinks coffee",3,"2 weeks",2457,"agree-key",390,5.96614673912369
3,"entertainment","truthJudge","watched space launches","male",NA,"Josh","watches space launches",3,"year",4135,"agree-key",15,2.70805020110221
3,"clothing","truthJudge","wore a bra","female",NA,"Ashley","wears a bra",3,"month",2023,"agree-key",180,5.19295685089021
3,"employment","truthJudge","wrote a novel","female",NA,"Brooke","writes novels",3,"year",1745,"agree-key",15,2.70805020110221
3,"clothing","truthJudge","wore a watch","male",NA,"Seth","wears a watch",3,"week",2756,"agree-key",780,6.65929391968364
3,"food","truthJudge","ate caviar","female",NA,"Sophia","eats caviar",3,"month",3722,"agree-key",180,5.19295685089021
3,"food","truthJudge","did cocaine","female",NA,"Elisa","does cocaine",3,"month",1509,"agree-key",180,5.19295685089021
3,"food","truthJudge","drank beer","female",NA,"Alicia","drinks beer",3,"month",1360,"agree-key",180,5.19295685089021
3,"food","truthJudge","drank coffee","female",NA,"Amber","drinks coffee",3,"year",1435,"disagree-key",15,2.70805020110221
3,"employment","truthJudge","sold a company","female",NA,"Kristina","sells companies",3,"year",3202,"agree-key",15,2.70805020110221
3,"hobby","truthJudge","ran","female",NA,"Jackie","runs",3,"year",2435,"disagree-key",15,2.70805020110221
3,"clothing","truthJudge","wore slacks","female",NA,"Maya","wears slacks",3,"week",1786,"agree-key",780,6.65929391968364
3,"hobby","truthJudge","hiked","female",NA,"Julia","hikes",3,"2 months",1536,"agree-key",90,4.49980967033027
3,"entertainment","truthJudge","went to the ballet","male",NA,"Scott","goes to the ballet",3,"month",2332,"agree-key",180,5.19295685089021
3,"employment","truthJudge","wrote a poem","male",NA,"Anthony","writes poems",3,"5 years",1891,"disagree-key",3,1.09861228866811
3,"entertainment","truthJudge","went to the movies","male",NA,"Jack","goes to the movies",3,"2 years",2190,"agree-key",7.5,2.01490302054226
3,"food","truthJudge","drank beer","male",NA,"Fred","drinks beer",3,"month",1797,"agree-key",180,5.19295685089021
3,"clothing","truthJudge","wore a suit","male",NA,"John","wears a suit",3,"week",1625,"agree-key",780,6.65929391968364
3,"clothing","truthJudge","wore socks","male",NA,"Stephen","wears socks",3,"month",2569,"agree-key",180,5.19295685089021
3,"employment","truthJudge","stole a car","female",NA,"Claire","steals cars",3,"5 years",1682,"disagree-key",3,1.09861228866811
3,"clothing","truthJudge","wore socks","female",NA,"Kim","wears socks",3,"week",1355,"agree-key",780,6.65929391968364
3,"employment","truthJudge","volunteered for a political campaign","female",NA,"Veronica","volunteers for political campaigns",3,"5 years",2142,"agree-key",3,1.09861228866811
3,"food","truthJudge","ate peanut butter","female",NA,"Esther","eats peanut butter",3,"month",1738,"agree-key",180,5.19295685089021
3,"entertainment","truthJudge","watched professional football","male",NA,"Greg","watches professional football",3,"2 years",1791,"disagree-key",7.5,2.01490302054226
3,"food","truthJudge","smoked marijuana","female",NA,"Elizabeth","smokes marijuana",3,"5 years",1841,"disagree-key",3,1.09861228866811
3,"hobby","truthJudge","played the banjo","female",NA,"Hillary","plays the banjo",3,"2 years",1577,"disagree-key",7.5,2.01490302054226
4,"entertainment","truthJudge","watched professional football","male",NA,"Scott","watches professional football",3,"month",4487,"agree-key",180,5.19295685089021
4,"hobby","truthJudge","hiked","female",NA,"Esther","hikes",3,"2 years",3700,"agree-key",7.5,2.01490302054226
4,"employment","truthJudge","volunteered for a soup kitchen","female",NA,"Jennifer","volunteers for soup kitchens",3,"5 years",3793,"agree-key",3,1.09861228866811
4,"food","truthJudge","did cocaine","male",NA,"Vince","does cocaine",3,"week",2812,"agree-key",780,6.65929391968364
4,"clothing","truthJudge","wore a bra","female",NA,"Janet","wears a bra",3,"week",3615,"agree-key",780,6.65929391968364
4,"clothing","truthJudge","wore a bra","male",NA,"Tim","wears a bra",3,"month",4835,"disagree-key",180,5.19295685089021
4,"food","truthJudge","drank coffee","male",NA,"Tom","drinks coffee",3,"month",3251,"agree-key",180,5.19295685089021
4,"employment","truthJudge","wrote a novel","male",NA,"Fred","writes novels",3,"year",4263,"agree-key",15,2.70805020110221
4,"clothing","truthJudge","wore slacks","female",NA,"Shannon","wears slacks",3,"6 months",2558,"agree-key",30,3.40119738166216
4,"clothing","truthJudge","wore socks","male",NA,"Cameron","wears socks",3,"month",2063,"agree-key",180,5.19295685089021
4,"clothing","truthJudge","wore a suit","female",NA,"Ashley","wears a suit",3,"6 months",3487,"disagree-key",30,3.40119738166216
4,"hobby","truthJudge","played tennis","female",NA,"Laura","plays tennis",3,"2 years",2797,"agree-key",7.5,2.01490302054226
4,"food","truthJudge","ate caviar","female",NA,"Maya","eats caviar",3,"month",3838,"agree-key",180,5.19295685089021
4,"food","truthJudge","did cocaine","female",NA,"Crystal","does cocaine",3,"week",2208,"agree-key",780,6.65929391968364
4,"hobby","truthJudge","ran","male",NA,"Ronald","runs",3,"year",2268,"agree-key",15,2.70805020110221
4,"entertainment","truthJudge","watched space launches","female",NA,"Stephanie","watches space launches",3,"year",4396,"agree-key",15,2.70805020110221
4,"employment","truthJudge","wrote a poem","female",NA,"Theresa","writes poems",3,"5 years",3734,"agree-key",3,1.09861228866811
4,"employment","truthJudge","sold a company","male",NA,"Stephen","sells companies",3,"year",3944,"agree-key",15,2.70805020110221
4,"employment","truthJudge","sold something on eBay","male",NA,"Anthony","sells things on eBay",3,"5 years",4833,"disagree-key",3,1.09861228866811
4,"entertainment","truthJudge","listened to live music","male",NA,"Lee","listens to live music",3,"year",3772,"agree-key",15,2.70805020110221
4,"hobby","truthJudge","played the banjo","male",NA,"Christopher","plays the banjo",3,"5 years",2527,"agree-key",3,1.09861228866811
4,"employment","truthJudge","stole a car","female",NA,"Jackie","steals cars",3,"year",2495,"agree-key",15,2.70805020110221
4,"entertainment","truthJudge","went to the movies","male",NA,"Ben","goes to the movies",3,"2 years",3723,"agree-key",7.5,2.01490302054226
4,"food","truthJudge","drank beer","female",NA,"Jessica","drinks beer",3,"month",1771,"agree-key",180,5.19295685089021
4,"clothing","truthJudge","wore a watch","male",NA,"Gabriel","wears a watch",3,"week",4167,"agree-key",780,6.65929391968364
4,"food","truthJudge","drank coffee","female",NA,"Monica","drinks coffee",3,"month",4119,"agree-key",180,5.19295685089021
4,"employment","truthJudge","stole chewing gum","male",NA,"David","steals chewing gum",3,"month",2658,"agree-key",180,5.19295685089021
4,"food","truthJudge","smoked marijuana","female",NA,"Sophia","smokes marijuana",3,"week",3282,"agree-key",780,6.65929391968364
4,"food","truthJudge","smoked cigarettes","male",NA,"Eric","smokes cigarettes",3,"week",1740,"agree-key",780,6.65929391968364
4,"food","truthJudge","drank beer","male",NA,"Lucas","drinks beer",3,"week",2638,"agree-key",780,6.65929391968364
4,"employment","truthJudge","volunteered for a political campaign","male",NA,"Martin","volunteers for political campaigns",3,"year",8085,"agree-key",15,2.70805020110221
4,"entertainment","truthJudge","listened to Pandora","female",NA,"Natalie","listens to Pandora",3,"month",4657,"agree-key",180,5.19295685089021
4,"clothing","truthJudge","wore socks","female",NA,"Tina","wears socks",3,"month",1738,"agree-key",180,5.19295685089021
4,"food","truthJudge","ate peanut butter","female",NA,"Elizabeth","eats peanut butter",3,"year",2836,"agree-key",15,2.70805020110221
4,"clothing","truthJudge","wore a suit","male",NA,"George","wears a suit",3,"month",1584,"agree-key",180,5.19295685089021
4,"hobby","truthJudge","climbed mountains","male",NA,"Daniel","climbs mountains",3,"year",1814,"agree-key",15,2.70805020110221
4,"entertainment","truthJudge","went to the ballet","male",NA,"Greg","goes to the ballet",3,"2 years",2320,"agree-key",7.5,2.01490302054226
5,"employment","truthJudge","volunteered for a political campaign","male",NA,"Ronald","volunteers for political campaigns",3,"year",5391,"agree-key",15,2.70805020110221
5,"clothing","truthJudge","wore a suit","female",NA,"Melinda","wears a suit",3,"week",2457,"agree-key",780,6.65929391968364
5,"entertainment","truthJudge","watched space launches","female",NA,"Nicole","watches space launches",3,"month",4607,"agree-key",180,5.19295685089021
5,"hobby","truthJudge","hiked","male",NA,"William","hikes",3,"year",1764,"agree-key",15,2.70805020110221
5,"food","truthJudge","smoked marijuana","male",NA,"Lee","smokes marijuana",3,"month",3530,"disagree-key",180,5.19295685089021
5,"employment","truthJudge","stole a car","male",NA,"Jacob","steals cars",3,"month",20262,"agree-key",180,5.19295685089021
5,"food","truthJudge","drank beer","male",NA,"Greg","drinks beer",3,"month",4377,"disagree-key",180,5.19295685089021
5,"entertainment","truthJudge","watched professional football","male",NA,"Doug","watches professional football",3,"year",3553,"disagree-key",15,2.70805020110221
5,"clothing","truthJudge","wore a suit","male",NA,"Lucas","wears a suit",3,"month",1764,"agree-key",180,5.19295685089021
5,"food","truthJudge","drank beer","female",NA,"Sophia","drinks beer",3,"week",1828,"disagree-key",780,6.65929391968364
5,"employment","truthJudge","wrote a novel","male",NA,"Josh","writes novels",3,"5 years",1955,"agree-key",3,1.09861228866811
5,"clothing","truthJudge","wore a bra","male",NA,"Michael","wears a bra",3,"6 months",3274,"disagree-key",30,3.40119738166216
5,"food","truthJudge","did cocaine","male",NA,"John","does cocaine",3,"5 years",2697,"disagree-key",3,1.09861228866811
5,"clothing","truthJudge","wore socks","female",NA,"Ashley","wears socks",3,"month",2699,"disagree-key",180,5.19295685089021
5,"entertainment","truthJudge","went to the movies","male",NA,"Stephen","goes to the movies",3,"month",4088,"agree-key",180,5.19295685089021
5,"food","truthJudge","did cocaine","female",NA,"Brooke","does cocaine",3,"month",3115,"agree-key",180,5.19295685089021
5,"clothing","truthJudge","wore slacks","female",NA,"Linda","wears slacks",3,"6 months",3932,"disagree-key",30,3.40119738166216
5,"entertainment","truthJudge","went to the ballet","female",NA,"Kathleen","goes to the ballet",3,"year",2803,"disagree-key",15,2.70805020110221
5,"employment","truthJudge","wrote a poem","female",NA,"Theresa","writes poems",3,"5 years",4423,"disagree-key",3,1.09861228866811
5,"food","truthJudge","ate caviar","female",NA,"Esther","eats caviar",3,"5 years",2459,"disagree-key",3,1.09861228866811
5,"hobby","truthJudge","ran","female",NA,"Tina","runs",3,"week",6215,"agree-key",780,6.65929391968364
5,"employment","truthJudge","sold something on eBay","female",NA,"Janet","sells things on eBay",3,"5 years",3130,"disagree-key",3,1.09861228866811
5,"hobby","truthJudge","played tennis","female",NA,"Kristina","plays tennis",3,"2 years",15707,"agree-key",7.5,2.01490302054226
5,"entertainment","truthJudge","listened to Pandora","male",NA,"Stephen","listens to Pandora",3,"year",3075,"disagree-key",15,2.70805020110221
5,"food","truthJudge","ate peanut butter","male",NA,"Scott","eats peanut butter",3,"5 years",1755,"disagree-key",3,1.09861228866811
5,"food","truthJudge","drank coffee","male",NA,"Fred","drinks coffee",3,"2 weeks",3929,"agree-key",390,5.96614673912369
5,"clothing","truthJudge","wore a watch","male",NA,"Ted","wears a watch",3,"week",2291,"agree-key",780,6.65929391968364
5,"hobby","truthJudge","climbed mountains","female",NA,"Angela","climbs mountains",3,"year",2635,"agree-key",15,2.70805020110221
5,"employment","truthJudge","sold a company","male",NA,"Gabriel","sells companies",3,"year",3601,"agree-key",15,2.70805020110221
5,"employment","truthJudge","stole chewing gum","female",NA,"Kim","steals chewing gum",3,"month",3345,"agree-key",180,5.19295685089021
5,"employment","truthJudge","volunteered for a soup kitchen","male",NA,"Jack","volunteers for soup kitchens",3,"year",3218,"agree-key",15,2.70805020110221
5,"clothing","truthJudge","wore socks","male",NA,"Kyle","wears socks",3,"week",3618,"agree-key",780,6.65929391968364
5,"food","truthJudge","smoked cigarettes","female",NA,"Jackie","smokes cigarettes",3,"week",5223,"agree-key",780,6.65929391968364
5,"food","truthJudge","drank coffee","female",NA,"Monica","drinks coffee",3,"2 weeks",3362,"agree-key",390,5.96614673912369
5,"clothing","truthJudge","wore a bra","female",NA,"Shannon","wears a bra",3,"week",3002,"agree-key",780,6.65929391968364
5,"entertainment","truthJudge","listened to live music","female",NA,"Jennifer","listens to live music",3,"week",2811,"agree-key",780,6.65929391968364
5,"hobby","truthJudge","played the banjo","male",NA,"Martin","plays the banjo",3,"2 years",5048,"disagree-key",7.5,2.01490302054226
6,"clothing","truthJudge","wore socks","male",NA,"Jack","wears socks",3,"week",3501,"agree-key",780,6.65929391968364
6,"entertainment","truthJudge","listened to live music","male",NA,"Gabriel","listens to live music",3,"month",2805,"agree-key",180,5.19295685089021
6,"employment","truthJudge","stole chewing gum","female",NA,"Rebecca","steals chewing gum",3,"5 years",2574,"agree-key",3,1.09861228866811
6,"employment","truthJudge","stole a car","male",NA,"Scott","steals cars",3,"5 years",2037,"agree-key",3,1.09861228866811
6,"clothing","truthJudge","wore a suit","female",NA,"Veronica","wears a suit",3,"6 months",1622,"agree-key",30,3.40119738166216
6,"hobby","truthJudge","climbed mountains","male",NA,"Fred","climbs mountains",3,"year",2294,"agree-key",15,2.70805020110221
6,"entertainment","truthJudge","listened to Pandora","male",NA,"Christopher","listens to Pandora",3,"week",2334,"agree-key",780,6.65929391968364
6,"clothing","truthJudge","wore socks","female",NA,"Nicole","wears socks",3,"month",1444,"agree-key",180,5.19295685089021
6,"employment","truthJudge","volunteered for a soup kitchen","female",NA,"Maya","volunteers for soup kitchens",3,"year",2063,"agree-key",15,2.70805020110221
6,"food","truthJudge","drank beer","female",NA,"Crystal","drinks beer",3,"2 weeks",1989,"agree-key",390,5.96614673912369
6,"food","truthJudge","drank beer","male",NA,"Martin","drinks beer",3,"week",2486,"agree-key",780,6.65929391968364
6,"employment","truthJudge","wrote a novel","male",NA,"Derrick","writes novels",3,"5 years",2798,"agree-key",3,1.09861228866811
6,"clothing","truthJudge","wore a bra","female",NA,"Kristina","wears a bra",3,"month",3814,"disagree-key",180,5.19295685089021
6,"food","truthJudge","drank coffee","female",NA,"Elisa","drinks coffee",3,"2 weeks",1716,"agree-key",390,5.96614673912369
6,"employment","truthJudge","sold a company","female",NA,"Tina","sells companies",3,"year",2853,"agree-key",15,2.70805020110221
6,"food","truthJudge","did cocaine","male",NA,"Tom","does cocaine",3,"year",2572,"disagree-key",15,2.70805020110221
6,"hobby","truthJudge","hiked","female",NA,"Jackie","hikes",3,"week",2486,"agree-key",780,6.65929391968364
6,"hobby","truthJudge","played tennis","male",NA,"Ronald","plays tennis",3,"2 years",2244,"disagree-key",7.5,2.01490302054226
6,"clothing","truthJudge","wore a watch","male",NA,"Lee","wears a watch",3,"month",2558,"agree-key",180,5.19295685089021
6,"employment","truthJudge","wrote a poem","male",NA,"Anthony","writes poems",3,"5 years",1716,"disagree-key",3,1.09861228866811
6,"entertainment","truthJudge","watched professional football","male",NA,"Tim","watches professional football",3,"2 years",2610,"disagree-key",7.5,2.01490302054226
6,"hobby","truthJudge","ran","female",NA,"Hillary","runs",3,"year",2437,"disagree-key",15,2.70805020110221
6,"entertainment","truthJudge","watched space launches","female",NA,"Kelly","watches space launches",3,"month",3838,"agree-key",180,5.19295685089021
6,"employment","truthJudge","volunteered for a political campaign","male",NA,"Eric","volunteers for political campaigns",3,"5 years",2749,"disagree-key",3,1.09861228866811
6,"food","truthJudge","ate caviar","male",NA,"Greg","eats caviar",3,"month",2378,"agree-key",180,5.19295685089021
6,"hobby","truthJudge","played the banjo","male",NA,"Lewis","plays the banjo",3,"year",2400,"disagree-key",15,2.70805020110221
6,"food","truthJudge","ate peanut butter","female",NA,"Amber","eats peanut butter",3,"5 years",1526,"disagree-key",3,1.09861228866811
6,"food","truthJudge","smoked marijuana","female",NA,"Alicia","smokes marijuana",3,"5 years",1269,"disagree-key",3,1.09861228866811
6,"food","truthJudge","did cocaine","female",NA,"Kim","does cocaine",3,"month",1957,"agree-key",180,5.19295685089021
6,"clothing","truthJudge","wore slacks","female",NA,"Brooke","wears slacks",3,"week",2061,"agree-key",780,6.65929391968364
6,"entertainment","truthJudge","went to the movies","female",NA,"Shannon","goes to the movies",3,"month",2206,"agree-key",180,5.19295685089021
6,"food","truthJudge","smoked cigarettes","female",NA,"Ashley","smokes cigarettes",3,"month",1774,"agree-key",180,5.19295685089021
6,"clothing","truthJudge","wore a bra","male",NA,"Kyle","wears a bra",3,"month",3894,"disagree-key",180,5.19295685089021
6,"employment","truthJudge","sold something on eBay","male",NA,"Lucas","sells things on eBay",3,"5 years",2712,"disagree-key",3,1.09861228866811
6,"clothing","truthJudge","wore a suit","male",NA,"Brian","wears a suit",3,"6 months",2579,"disagree-key",30,3.40119738166216
6,"food","truthJudge","drank coffee","male",NA,"Ben","drinks coffee",3,"year",1775,"disagree-key",15,2.70805020110221
6,"entertainment","truthJudge","went to the ballet","male",NA,"Jacob","goes to the ballet",3,"year",2309,"agree-key",15,2.70805020110221
7,"clothing","truthJudge","wore slacks","female",NA,"Amber","wears slacks",3,"week",4870,"agree-key",780,6.65929391968364
7,"food","truthJudge","smoked cigarettes","female",NA,"Nicole","smokes cigarettes",3,"year",2850,"disagree-key",15,2.70805020110221
7,"clothing","truthJudge","wore a bra","female",NA,"Sophia","wears a bra",3,"month",2278,"agree-key",180,5.19295685089021
7,"hobby","truthJudge","played the banjo","female",NA,"Laura","plays the banjo",3,"5 years",3233,"disagree-key",3,1.09861228866811
7,"clothing","truthJudge","wore a watch","female",NA,"Maya","wears a watch",3,"month",2394,"agree-key",180,5.19295685089021
7,"clothing","truthJudge","wore a bra","male",NA,"Vince","wears a bra",3,"month",3157,"agree-key",180,5.19295685089021
7,"food","truthJudge","ate caviar","male",NA,"Robert","eats caviar",3,"year",1687,"agree-key",15,2.70805020110221
7,"hobby","truthJudge","ran","male",NA,"Lee","runs",3,"week",1437,"disagree-key",780,6.65929391968364
7,"entertainment","truthJudge","went to the ballet","male",NA,"Greg","goes to the ballet",3,"year",2581,"disagree-key",15,2.70805020110221
7,"food","truthJudge","drank coffee","male",NA,"Stephen","drinks coffee",3,"month",2986,"agree-key",180,5.19295685089021
7,"entertainment","truthJudge","watched space launches","male",NA,"Ben","watches space launches",3,"2 years",4266,"disagree-key",7.5,2.01490302054226
7,"entertainment","truthJudge","went to the movies","male",NA,"Jack","goes to the movies",3,"year",2845,"agree-key",15,2.70805020110221
7,"employment","truthJudge","stole chewing gum","female",NA,"Bridgette","steals chewing gum",3,"year",4318,"agree-key",15,2.70805020110221
7,"food","truthJudge","drank beer","male",NA,"David","drinks beer",3,"2 weeks",3887,"agree-key",390,5.96614673912369
7,"employment","truthJudge","volunteered for a political campaign","male",NA,"Martin","volunteers for political campaigns",3,"5 years",798,"disagree-key",3,1.09861228866811
7,"employment","truthJudge","sold a company","female",NA,"Jennifer","sells companies",3,"year",354,"disagree-key",15,2.70805020110221
7,"hobby","truthJudge","climbed mountains","female",NA,"Elisa","climbs mountains",3,"year",28,"agree-key",15,2.70805020110221
7,"employment","truthJudge","wrote a poem","female",NA,"Kim","writes poems",3,"5 years",35,"disagree-key",3,1.09861228866811
7,"hobby","truthJudge","played tennis","male",NA,"Christopher","plays tennis",3,"year",4019,"agree-key",15,2.70805020110221
7,"food","truthJudge","smoked marijuana","male",NA,"Tom","smokes marijuana",3,"year",1575,"agree-key",15,2.70805020110221
7,"employment","truthJudge","stole a car","male",NA,"Ted","steals cars",3,"5 years",1985,"agree-key",3,1.09861228866811
7,"employment","truthJudge","wrote a novel","female",NA,"Kristina","writes novels",3,"5 years",1755,"agree-key",3,1.09861228866811
7,"food","truthJudge","drank beer","female",NA,"Alicia","drinks beer",3,"week",2015,"agree-key",780,6.65929391968364
7,"clothing","truthJudge","wore socks","male",NA,"Scott","wears socks",3,"month",2376,"agree-key",180,5.19295685089021
7,"clothing","truthJudge","wore socks","female",NA,"Ashley","wears socks",3,"month",1483,"agree-key",180,5.19295685089021
7,"clothing","truthJudge","wore a suit","female",NA,"Linda","wears a suit",3,"6 months",2090,"agree-key",30,3.40119738166216
7,"entertainment","truthJudge","watched professional football","female",NA,"Monica","watches professional football",3,"month",2057,"agree-key",180,5.19295685089021
7,"hobby","truthJudge","hiked","male",NA,"Ronald","hikes",3,"year",2055,"agree-key",15,2.70805020110221
7,"food","truthJudge","did cocaine","female",NA,"Rebecca","does cocaine",3,"month",2123,"agree-key",180,5.19295685089021
7,"food","truthJudge","ate peanut butter","female",NA,"Janet","eats peanut butter",3,"month",1612,"agree-key",180,5.19295685089021
7,"employment","truthJudge","sold something on eBay","male",NA,"Lucas","sells things on eBay",3,"5 years",2185,"disagree-key",3,1.09861228866811
7,"entertainment","truthJudge","listened to live music","female",NA,"Hillary","listens to live music",3,"week",3062,"agree-key",780,6.65929391968364
7,"food","truthJudge","did cocaine","male",NA,"Seth","does cocaine",3,"5 years",1593,"agree-key",3,1.09861228866811
7,"food","truthJudge","drank coffee","female",NA,"Tina","drinks coffee",3,"year",1098,"agree-key",15,2.70805020110221
7,"employment","truthJudge","volunteered for a soup kitchen","male",NA,"Kyle","volunteers for soup kitchens",3,"5 years",902,"agree-key",3,1.09861228866811
7,"clothing","truthJudge","wore a suit","male",NA,"Derrick","wears a suit",3,"month",572,"disagree-key",180,5.19295685089021
7,"entertainment","truthJudge","listened to Pandora","female",NA,"Theresa","listens to Pandora",3,"year",536,"agree-key",15,2.70805020110221
8,"entertainment","truthJudge","went to the movies","female",NA,"Michelle","goes to the movies",3,"year",3610,"agree-key",15,2.70805020110221
8,"entertainment","truthJudge","listened to Pandora","male",NA,"Martin","listens to Pandora",3,"week",3088,"agree-key",780,6.65929391968364
8,"entertainment","truthJudge","went to the ballet","female",NA,"Rebecca","goes to the ballet",3,"year",5044,"agree-key",15,2.70805020110221
8,"clothing","truthJudge","wore slacks","male",NA,"Ted","wears slacks",3,"6 months",1517,"agree-key",30,3.40119738166216
8,"entertainment","truthJudge","watched space launches","male",NA,"Gabriel","watches space launches",3,"year",2128,"agree-key",15,2.70805020110221
8,"food","truthJudge","ate caviar","female",NA,"Esther","eats caviar",3,"year",1657,"agree-key",15,2.70805020110221
8,"clothing","truthJudge","wore a watch","male",NA,"Cameron","wears a watch",3,"6 months",5878,"agree-key",30,3.40119738166216
8,"clothing","truthJudge","wore a suit","female",NA,"Julia","wears a suit",3,"6 months",2240,"agree-key",30,3.40119738166216
8,"employment","truthJudge","stole a car","female",NA,"Kathleen","steals cars",3,"year",2494,"agree-key",15,2.70805020110221
8,"hobby","truthJudge","hiked","male",NA,"Fred","hikes",3,"2 months",1649,"agree-key",90,4.49980967033027
8,"hobby","truthJudge","played tennis","female",NA,"Bridgette","plays tennis",3,"2 years",3672,"disagree-key",7.5,2.01490302054226
8,"clothing","truthJudge","wore a bra","female",NA,"Jessica","wears a bra",3,"month",3070,"agree-key",180,5.19295685089021
8,"employment","truthJudge","wrote a poem","male",NA,"Alexander","writes poems",3,"5 years",5591,"disagree-key",3,1.09861228866811
8,"food","truthJudge","drank coffee","male",NA,"Seth","drinks coffee",3,"week",3149,"agree-key",780,6.65929391968364
8,"employment","truthJudge","sold something on eBay","female",NA,"Melinda","sells things on eBay",3,"5 years",6134,"disagree-key",3,1.09861228866811
8,"employment","truthJudge","stole chewing gum","female",NA,"Jackie","steals chewing gum",3,"year",3968,"agree-key",15,2.70805020110221
8,"employment","truthJudge","sold a company","male",NA,"Lucas","sells companies",3,"5 years",8741,"disagree-key",3,1.09861228866811
8,"employment","truthJudge","volunteered for a soup kitchen","male",NA,"Brian","volunteers for soup kitchens",3,"5 years",4768,"agree-key",3,1.09861228866811
8,"entertainment","truthJudge","listened to live music","female",NA,"Veronica","listens to live music",3,"year",2862,"agree-key",15,2.70805020110221
8,"food","truthJudge","drank beer","male",NA,"Stephen","drinks beer",3,"2 weeks",1600,"agree-key",390,5.96614673912369
8,"hobby","truthJudge","climbed mountains","male",NA,"Anthony","climbs mountains",3,"2 years",3408,"agree-key",7.5,2.01490302054226
8,"food","truthJudge","smoked marijuana","female",NA,"Angela","smokes marijuana",3,"year",2245,"agree-key",15,2.70805020110221
8,"food","truthJudge","did cocaine","female",NA,"Theresa","does cocaine",3,"5 years",3032,"disagree-key",3,1.09861228866811
8,"clothing","truthJudge","wore a suit","male",NA,"Kyle","wears a suit",3,"month",2766,"agree-key",180,5.19295685089021
8,"food","truthJudge","did cocaine","male",NA,"Stephen","does cocaine",3,"week",1402,"agree-key",780,6.65929391968364
8,"food","truthJudge","ate peanut butter","male",NA,"Lewis","eats peanut butter",3,"month",2012,"agree-key",180,5.19295685089021
8,"food","truthJudge","smoked cigarettes","female",NA,"Tina","smokes cigarettes",3,"week",1662,"agree-key",780,6.65929391968364
8,"employment","truthJudge","volunteered for a political campaign","male",NA,"Greg","volunteers for political campaigns",3,"year",3729,"agree-key",15,2.70805020110221
8,"employment","truthJudge","wrote a novel","male",NA,"Daniel","writes novels",3,"year",2018,"agree-key",15,2.70805020110221
8,"food","truthJudge","drank beer","female",NA,"Hillary","drinks beer",3,"week",1475,"agree-key",780,6.65929391968364
8,"hobby","truthJudge","ran","male",NA,"Ben","runs",3,"year",3021,"agree-key",15,2.70805020110221
8,"clothing","truthJudge","wore socks","female",NA,"Claire","wears socks",3,"week",1471,"agree-key",780,6.65929391968364
8,"hobby","truthJudge","played the banjo","female",NA,"Janet","plays the banjo",3,"year",2768,"disagree-key",15,2.70805020110221
8,"food","truthJudge","drank coffee","female",NA,"Kelly","drinks coffee",3,"year",3926,"disagree-key",15,2.70805020110221
8,"entertainment","truthJudge","watched professional football","female",NA,"Elisa","watches professional football",3,"year",5004,"disagree-key",15,2.70805020110221
8,"clothing","truthJudge","wore socks","male",NA,"David","wears socks",3,"month",1507,"agree-key",180,5.19295685089021
8,"clothing","truthJudge","wore a bra","male",NA,"Vince","wears a bra",3,"month",732,"agree-key",180,5.19295685089021
9,"food","truthJudge","drank coffee","female",NA,"Janet","drinks coffee",3,"2 weeks",3358,"agree-key",390,5.96614673912369
9,"clothing","truthJudge","wore socks","male",NA,"William","wears socks",3,"month",2928,"agree-key",180,5.19295685089021
9,"employment","truthJudge","sold something on eBay","female",NA,"Stephanie","sells things on eBay",3,"5 years",2767,"agree-key",3,1.09861228866811
9,"food","truthJudge","did cocaine","male",NA,"Stephen","does cocaine",3,"year",2863,"disagree-key",15,2.70805020110221
9,"clothing","truthJudge","wore slacks","female",NA,"Kristina","wears slacks",3,"month",2001,"agree-key",180,5.19295685089021
9,"hobby","truthJudge","ran","male",NA,"Lucas","runs",3,"year",1638,"disagree-key",15,2.70805020110221
9,"food","truthJudge","smoked cigarettes","male",NA,"Fred","smokes cigarettes",3,"year",1687,"disagree-key",15,2.70805020110221
9,"entertainment","truthJudge","watched professional football","female",NA,"Theresa","watches professional football",3,"year",2178,"disagree-key",15,2.70805020110221
9,"food","truthJudge","drank beer","male",NA,"Kyle","drinks beer",3,"year",2048,"disagree-key",15,2.70805020110221
9,"clothing","truthJudge","wore a suit","male",NA,"Vince","wears a suit",3,"6 months",2565,"disagree-key",30,3.40119738166216
9,"food","truthJudge","drank coffee","male",NA,"Michael","drinks coffee",3,"month",1749,"agree-key",180,5.19295685089021
9,"food","truthJudge","did cocaine","female",NA,"Sophia","does cocaine",3,"year",2266,"disagree-key",15,2.70805020110221
9,"entertainment","truthJudge","listened to Pandora","female",NA,"Monica","listens to Pandora",3,"week",1548,"agree-key",780,6.65929391968364
9,"food","truthJudge","smoked marijuana","male",NA,"David","smokes marijuana",3,"week",1534,"agree-key",780,6.65929391968364
9,"clothing","truthJudge","wore a watch","male",NA,"Brian","wears a watch",3,"week",1494,"agree-key",780,6.65929391968364
9,"food","truthJudge","drank beer","female",NA,"Angela","drinks beer",3,"2 weeks",1839,"agree-key",390,5.96614673912369
9,"employment","truthJudge","stole chewing gum","male",NA,"Greg","steals chewing gum",3,"month",2081,"agree-key",180,5.19295685089021
9,"entertainment","truthJudge","listened to live music","male",NA,"Lee","listens to live music",3,"week",1720,"agree-key",780,6.65929391968364
9,"employment","truthJudge","wrote a novel","male",NA,"Tim","writes novels",3,"5 years",3502,"agree-key",3,1.09861228866811
9,"food","truthJudge","ate peanut butter","female",NA,"Ashley","eats peanut butter",3,"month",2050,"agree-key",180,5.19295685089021
9,"hobby","truthJudge","hiked","female",NA,"Elisa","hikes",3,"year",1422,"disagree-key",15,2.70805020110221
9,"clothing","truthJudge","wore a bra","female",NA,"Melinda","wears a bra",3,"month",2894,"agree-key",180,5.19295685089021
9,"employment","truthJudge","volunteered for a soup kitchen","male",NA,"Gabriel","volunteers for soup kitchens",3,"year",2096,"agree-key",15,2.70805020110221
9,"employment","truthJudge","volunteered for a political campaign","male",NA,"Alexander","volunteers for political campaigns",3,"5 years",2314,"agree-key",3,1.09861228866811
9,"entertainment","truthJudge","watched space launches","male",NA,"Martin","watches space launches",3,"year",1785,"agree-key",15,2.70805020110221
9,"entertainment","truthJudge","went to the ballet","female",NA,"Tina","goes to the ballet",3,"year",1501,"agree-key",15,2.70805020110221
9,"clothing","truthJudge","wore socks","female",NA,"Kathleen","wears socks",3,"month",1416,"agree-key",180,5.19295685089021
9,"hobby","truthJudge","climbed mountains","female",NA,"Alicia","climbs mountains",3,"year",1551,"agree-key",15,2.70805020110221
9,"clothing","truthJudge","wore a bra","male",NA,"Derrick","wears a bra",3,"month",1332,"agree-key",180,5.19295685089021
9,"hobby","truthJudge","played tennis","male",NA,"Tom","plays tennis",3,"5 years",3043,"disagree-key",3,1.09861228866811
9,"clothing","truthJudge","wore a suit","female",NA,"Laura","wears a suit",3,"month",3018,"agree-key",180,5.19295685089021
9,"hobby","truthJudge","played the banjo","male",NA,"Josh","plays the banjo",3,"5 years",1251,"disagree-key",3,1.09861228866811
9,"entertainment","truthJudge","went to the movies","male",NA,"Christopher","goes to the movies",3,"month",2365,"agree-key",180,5.19295685089021
9,"food","truthJudge","ate caviar","female",NA,"Jessica","eats caviar",3,"5 years",1657,"disagree-key",3,1.09861228866811
9,"employment","truthJudge","sold a company","male",NA,"Daniel","sells companies",3,"year",2494,"agree-key",15,2.70805020110221
9,"employment","truthJudge","stole a car","female",NA,"Hillary","steals cars",3,"month",1352,"agree-key",180,5.19295685089021
9,"employment","truthJudge","wrote a poem","female",NA,"Bridgette","writes poems",3,"year",1289,"agree-key",15,2.70805020110221
10,"clothing","truthJudge","wore socks","female",NA,"Claire","wears socks",3,"6 months",5483,"disagree-key",30,3.40119738166216
10,"food","truthJudge","smoked cigarettes","male",NA,"Stephen","smokes cigarettes",3,"week",2341,"agree-key",780,6.65929391968364
10,"entertainment","truthJudge","listened to Pandora","female",NA,"Janet","listens to Pandora",3,"year",2637,"disagree-key",15,2.70805020110221
10,"food","truthJudge","ate peanut butter","male",NA,"Jack","eats peanut butter",3,"year",4690,"disagree-key",15,2.70805020110221
10,"food","truthJudge","ate caviar","female",NA,"Angela","eats caviar",3,"year",8250,"disagree-key",15,2.70805020110221
10,"hobby","truthJudge","climbed mountains","male",NA,"Robert","climbs mountains",3,"2 years",4008,"agree-key",7.5,2.01490302054226
10,"clothing","truthJudge","wore a bra","female",NA,"Elisa","wears a bra",3,"month",2980,"disagree-key",180,5.19295685089021
10,"clothing","truthJudge","wore socks","male",NA,"Brian","wears socks",3,"month",2548,"disagree-key",180,5.19295685089021
10,"employment","truthJudge","stole a car","female",NA,"Ashley","steals cars",3,"5 years",2420,"agree-key",3,1.09861228866811
10,"employment","truthJudge","wrote a novel","female",NA,"Melinda","writes novels",3,"5 years",4220,"agree-key",3,1.09861228866811
10,"hobby","truthJudge","played tennis","female",NA,"Kim","plays tennis",3,"year",2631,"agree-key",15,2.70805020110221
10,"entertainment","truthJudge","watched professional football","female",NA,"Bridgette","watches professional football",3,"month",2959,"agree-key",180,5.19295685089021
10,"hobby","truthJudge","played the banjo","male",NA,"Scott","plays the banjo",3,"5 years",3159,"disagree-key",3,1.09861228866811
10,"clothing","truthJudge","wore a bra","male",NA,"William","wears a bra",3,"week",3374,"agree-key",780,6.65929391968364
10,"food","truthJudge","did cocaine","female",NA,"Theresa","does cocaine",3,"month",3173,"agree-key",180,5.19295685089021
10,"entertainment","truthJudge","went to the movies","female",NA,"Crystal","goes to the movies",3,"month",1501,"agree-key",180,5.19295685089021
10,"food","truthJudge","smoked marijuana","male",NA,"Gabriel","smokes marijuana",3,"year",7038,"agree-key",15,2.70805020110221
10,"employment","truthJudge","volunteered for a soup kitchen","male",NA,"Tim","volunteers for soup kitchens",3,"year",4548,"agree-key",15,2.70805020110221
10,"clothing","truthJudge","wore a watch","female",NA,"Julia","wears a watch",3,"week",1948,"agree-key",780,6.65929391968364
10,"employment","truthJudge","wrote a poem","male",NA,"Kyle","writes poems",3,"5 years",5741,"disagree-key",3,1.09861228866811
10,"clothing","truthJudge","wore a suit","male",NA,"Fred","wears a suit",3,"week",2107,"agree-key",780,6.65929391968364
10,"entertainment","truthJudge","went to the ballet","male",NA,"Anthony","goes to the ballet",3,"year",1891,"agree-key",15,2.70805020110221
10,"food","truthJudge","drank beer","female",NA,"Laura","drinks beer",3,"year",3206,"disagree-key",15,2.70805020110221
10,"employment","truthJudge","sold a company","male",NA,"Lee","sells companies",3,"5 years",4426,"agree-key",3,1.09861228866811
10,"food","truthJudge","drank coffee","male",NA,"Martin","drinks coffee",3,"week",1665,"agree-key",780,6.65929391968364
10,"food","truthJudge","drank beer","male",NA,"Seth","drinks beer",3,"year",1330,"disagree-key",15,2.70805020110221
10,"employment","truthJudge","stole chewing gum","male",NA,"Doug","steals chewing gum",3,"month",2608,"agree-key",180,5.19295685089021
10,"food","truthJudge","drank coffee","female",NA,"Nicole","drinks coffee",3,"week",4480,"agree-key",780,6.65929391968364
10,"hobby","truthJudge","hiked","female",NA,"Michelle","hikes",3,"year",2100,"agree-key",15,2.70805020110221
10,"hobby","truthJudge","ran","female",NA,"Jessica","runs",3,"week",1659,"agree-key",780,6.65929391968364
10,"clothing","truthJudge","wore a suit","female",NA,"Kathleen","wears a suit",3,"month",3068,"disagree-key",180,5.19295685089021
10,"employment","truthJudge","sold something on eBay","male",NA,"Ronald","sells things on eBay",3,"year",4982,"agree-key",15,2.70805020110221
10,"clothing","truthJudge","wore slacks","female",NA,"Brooke","wears slacks",3,"week",3729,"agree-key",780,6.65929391968364
10,"entertainment","truthJudge","watched space launches","male",NA,"Vince","watches space launches",3,"2 years",2470,"agree-key",7.5,2.01490302054226
10,"employment","truthJudge","volunteered for a political campaign","female",NA,"Rebecca","volunteers for political campaigns",3,"5 years",2373,"agree-key",3,1.09861228866811
10,"entertainment","truthJudge","listened to live music","male",NA,"Lucas","listens to live music",3,"year",1854,"agree-key",15,2.70805020110221
10,"food","truthJudge","did cocaine","male",NA,"Daniel","does cocaine",3,"year",2268,"agree-key",15,2.70805020110221
11,"hobby","truthJudge","played the banjo","female",NA,"Shannon","plays the banjo",3,"year",3660,"agree-key",15,2.70805020110221
11,"food","truthJudge","drank beer","male",NA,"Eric","drinks beer",3,"2 weeks",1915,"agree-key",390,5.96614673912369
11,"employment","truthJudge","stole a car","male",NA,"Stephen","steals cars",3,"year",1761,"agree-key",15,2.70805020110221
11,"hobby","truthJudge","played tennis","male",NA,"Lee","plays tennis",3,"2 years",1995,"agree-key",7.5,2.01490302054226
11,"food","truthJudge","smoked cigarettes","female",NA,"Laura","smokes cigarettes",3,"month",3142,"agree-key",180,5.19295685089021
11,"food","truthJudge","drank coffee","female",NA,"Jessica","drinks coffee",3,"2 weeks",1983,"agree-key",390,5.96614673912369
11,"clothing","truthJudge","wore a watch","male",NA,"Anthony","wears a watch",3,"6 months",3668,"agree-key",30,3.40119738166216
11,"food","truthJudge","ate peanut butter","male",NA,"Tom","eats peanut butter",3,"month",1934,"agree-key",180,5.19295685089021
11,"food","truthJudge","drank coffee","male",NA,"Robert","drinks coffee",3,"month",1294,"agree-key",180,5.19295685089021
11,"employment","truthJudge","wrote a novel","male",NA,"Martin","writes novels",3,"year",1228,"agree-key",15,2.70805020110221
11,"entertainment","truthJudge","went to the movies","female",NA,"Elizabeth","goes to the movies",3,"month",2758,"agree-key",180,5.19295685089021
11,"clothing","truthJudge","wore slacks","female",NA,"Melinda","wears slacks",3,"week",2000,"agree-key",780,6.65929391968364
11,"clothing","truthJudge","wore a bra","male",NA,"Seth","wears a bra",3,"month",1593,"agree-key",180,5.19295685089021
11,"employment","truthJudge","wrote a poem","male",NA,"Ted","writes poems",3,"year",4813,"agree-key",15,2.70805020110221
11,"clothing","truthJudge","wore socks","male",NA,"Scott","wears socks",3,"week",2017,"agree-key",780,6.65929391968364
11,"food","truthJudge","did cocaine","male",NA,"Derrick","does cocaine",3,"5 years",2596,"agree-key",3,1.09861228866811
11,"hobby","truthJudge","climbed mountains","male",NA,"Doug","climbs mountains",3,"2 years",1769,"agree-key",7.5,2.01490302054226
11,"employment","truthJudge","volunteered for a soup kitchen","male",NA,"Christopher","volunteers for soup kitchens",3,"year",1840,"agree-key",15,2.70805020110221
11,"entertainment","truthJudge","went to the ballet","male",NA,"John","goes to the ballet",3,"month",4243,"agree-key",180,5.19295685089021
11,"clothing","truthJudge","wore a bra","female",NA,"Elisa","wears a bra",3,"month",4138,"agree-key",180,5.19295685089021
11,"food","truthJudge","did cocaine","female",NA,"Julia","does cocaine",3,"month",2339,"agree-key",180,5.19295685089021
11,"food","truthJudge","drank beer","female",NA,"Michelle","drinks beer",3,"week",1868,"agree-key",780,6.65929391968364
11,"clothing","truthJudge","wore socks","female",NA,"Janet","wears socks",3,"week",1356,"agree-key",780,6.65929391968364
11,"clothing","truthJudge","wore a suit","female",NA,"Crystal","wears a suit",3,"week",3203,"agree-key",780,6.65929391968364
11,"food","truthJudge","ate caviar","female",NA,"Jennifer","eats caviar",3,"year",4596,"agree-key",15,2.70805020110221
11,"hobby","truthJudge","hiked","male",NA,"Alexander","hikes",3,"2 years",1607,"agree-key",7.5,2.01490302054226
11,"entertainment","truthJudge","watched space launches","female",NA,"Maya","watches space launches",3,"month",2052,"agree-key",180,5.19295685089021
11,"food","truthJudge","smoked marijuana","female",NA,"Ashley","smokes marijuana",3,"week",2921,"agree-key",780,6.65929391968364
11,"employment","truthJudge","volunteered for a political campaign","male",NA,"Ronald","volunteers for political campaigns",3,"5 years",3022,"agree-key",3,1.09861228866811
11,"employment","truthJudge","sold something on eBay","female",NA,"Esther","sells things on eBay",3,"year",3018,"agree-key",15,2.70805020110221
11,"clothing","truthJudge","wore a suit","male",NA,"Greg","wears a suit",3,"week",1909,"agree-key",780,6.65929391968364
11,"entertainment","truthJudge","watched professional football","female",NA,"Amber","watches professional football",3,"2 years",2738,"agree-key",7.5,2.01490302054226
11,"entertainment","truthJudge","listened to live music","female",NA,"Rebecca","listens to live music",3,"month",1831,"agree-key",180,5.19295685089021
11,"employment","truthJudge","stole chewing gum","male",NA,"Jack","steals chewing gum",3,"5 years",1474,"agree-key",3,1.09861228866811
11,"hobby","truthJudge","ran","female",NA,"Tina","runs",3,"year",2227,"agree-key",15,2.70805020110221
11,"entertainment","truthJudge","listened to Pandora","female",NA,"Claire","listens to Pandora",3,"month",2130,"agree-key",180,5.19295685089021
11,"employment","truthJudge","sold a company","female",NA,"Kelly","sells companies",3,"5 years",2168,"agree-key",3,1.09861228866811
12,"entertainment","truthJudge","listened to live music","female",NA,"Angela","listens to live music",3,"year",5111,"agree-key",15,2.70805020110221
12,"entertainment","truthJudge","listened to Pandora","male",NA,"Jacob","listens to Pandora",3,"week",2765,"agree-key",780,6.65929391968364
12,"food","truthJudge","ate peanut butter","female",NA,"Kim","eats peanut butter",3,"year",2740,"agree-key",15,2.70805020110221
12,"entertainment","truthJudge","went to the ballet","female",NA,"Julia","goes to the ballet",3,"2 years",2477,"agree-key",7.5,2.01490302054226
12,"food","truthJudge","smoked cigarettes","female",NA,"Kelly","smokes cigarettes",3,"year",7742,"disagree-key",15,2.70805020110221
12,"employment","truthJudge","volunteered for a soup kitchen","male",NA,"George","volunteers for soup kitchens",3,"5 years",4038,"agree-key",3,1.09861228866811
12,"clothing","truthJudge","wore a suit","female",NA,"Jennifer","wears a suit",3,"6 months",3519,"agree-key",30,3.40119738166216
12,"food","truthJudge","drank coffee","female",NA,"Veronica","drinks coffee",3,"year",4511,"disagree-key",15,2.70805020110221
12,"hobby","truthJudge","ran","male",NA,"Lewis","runs",3,"2 months",2736,"agree-key",90,4.49980967033027
12,"entertainment","truthJudge","went to the movies","male",NA,"Ronald","goes to the movies",3,"month",2823,"agree-key",180,5.19295685089021
12,"food","truthJudge","did cocaine","female",NA,"Bridgette","does cocaine",3,"month",2457,"agree-key",180,5.19295685089021
12,"clothing","truthJudge","wore a bra","male",NA,"Brian","wears a bra",3,"6 months",3299,"disagree-key",30,3.40119738166216
12,"employment","truthJudge","wrote a novel","female",NA,"Theresa","writes novels",3,"year",3825,"agree-key",15,2.70805020110221
12,"hobby","truthJudge","climbed mountains","male",NA,"Anthony","climbs mountains",3,"year",2106,"agree-key",15,2.70805020110221
12,"employment","truthJudge","stole a car","male",NA,"Gabriel","steals cars",3,"year",2142,"agree-key",15,2.70805020110221
12,"clothing","truthJudge","wore a watch","female",NA,"Natalie","wears a watch",3,"week",1736,"agree-key",780,6.65929391968364
12,"employment","truthJudge","stole chewing gum","female",NA,"Claire","steals chewing gum",3,"month",4428,"agree-key",180,5.19295685089021
12,"clothing","truthJudge","wore a bra","female",NA,"Tina","wears a bra",3,"6 months",2858,"disagree-key",30,3.40119738166216
12,"food","truthJudge","drank beer","male",NA,"Eric","drinks beer",3,"2 weeks",3836,"agree-key",390,5.96614673912369
12,"food","truthJudge","smoked marijuana","female",NA,"Elisa","smokes marijuana",3,"month",5629,"disagree-key",180,5.19295685089021
12,"clothing","truthJudge","wore socks","female",NA,"Alicia","wears socks",3,"month",3135,"agree-key",180,5.19295685089021
12,"employment","truthJudge","sold a company","male",NA,"Josh","sells companies",3,"5 years",4454,"agree-key",3,1.09861228866811
12,"hobby","truthJudge","hiked","female",NA,"Linda","hikes",3,"2 years",9889,"agree-key",7.5,2.01490302054226
12,"food","truthJudge","drank beer","female",NA,"Elizabeth","drinks beer",3,"2 weeks",2467,"agree-key",390,5.96614673912369
12,"food","truthJudge","ate caviar","female",NA,"Kathleen","eats caviar",3,"5 years",2020,"agree-key",3,1.09861228866811
12,"hobby","truthJudge","played tennis","male",NA,"Michael","plays tennis",3,"2 years",2626,"agree-key",7.5,2.01490302054226
12,"employment","truthJudge","volunteered for a political campaign","male",NA,"Jack","volunteers for political campaigns",3,"year",2264,"agree-key",15,2.70805020110221
12,"entertainment","truthJudge","watched space launches","male",NA,"Greg","watches space launches",3,"year",2133,"agree-key",15,2.70805020110221
12,"employment","truthJudge","wrote a poem","male",NA,"John","writes poems",3,"5 years",2206,"agree-key",3,1.09861228866811
12,"clothing","truthJudge","wore socks","male",NA,"Christopher","wears socks",3,"month",3498,"agree-key",180,5.19295685089021
12,"employment","truthJudge","sold something on eBay","female",NA,"Nicole","sells things on eBay",3,"5 years",2281,"agree-key",3,1.09861228866811
12,"hobby","truthJudge","played the banjo","female",NA,"Laura","plays the banjo",3,"5 years",2253,"agree-key",3,1.09861228866811
12,"entertainment","truthJudge","watched professional football","male",NA,"Martin","watches professional football",3,"month",3002,"agree-key",180,5.19295685089021
12,"food","truthJudge","drank coffee","male",NA,"Seth","drinks coffee",3,"week",2140,"agree-key",780,6.65929391968364
12,"clothing","truthJudge","wore a suit","male",NA,"Robert","wears a suit",3,"week",4187,"agree-key",780,6.65929391968364
12,"clothing","truthJudge","wore slacks","male",NA,"Tim","wears slacks",3,"week",1762,"agree-key",780,6.65929391968364
12,"food","truthJudge","did cocaine","male",NA,"Stephen","does cocaine",3,"year",2210,"agree-key",15,2.70805020110221
13,"employment","truthJudge","stole chewing gum","female",NA,"Sophia","steals chewing gum",3,"month",10686,"agree-key",180,5.19295685089021
13,"hobby","truthJudge","played tennis","female",NA,"Tina","plays tennis",3,"5 years",5246,"agree-key",3,1.09861228866811
13,"employment","truthJudge","volunteered for a soup kitchen","male",NA,"Anthony","volunteers for soup kitchens",3,"5 years",4475,"agree-key",3,1.09861228866811
13,"food","truthJudge","smoked cigarettes","female",NA,"Janet","smokes cigarettes",3,"year",4860,"disagree-key",15,2.70805020110221
13,"food","truthJudge","drank coffee","male",NA,"Doug","drinks coffee",3,"year",3922,"disagree-key",15,2.70805020110221
13,"clothing","truthJudge","wore slacks","male",NA,"Greg","wears slacks",3,"6 months",5082,"agree-key",30,3.40119738166216
13,"clothing","truthJudge","wore a watch","male",NA,"Stephen","wears a watch",3,"week",3007,"agree-key",780,6.65929391968364
13,"clothing","truthJudge","wore a bra","male",NA,"Seth","wears a bra",3,"6 months",2876,"disagree-key",30,3.40119738166216
13,"entertainment","truthJudge","went to the ballet","female",NA,"Angela","goes to the ballet",3,"month",3834,"agree-key",180,5.19295685089021
13,"clothing","truthJudge","wore a suit","male",NA,"Gabriel","wears a suit",3,"week",2682,"agree-key",780,6.65929391968364
13,"employment","truthJudge","wrote a poem","female",NA,"Nicole","writes poems",3,"5 years",4049,"agree-key",3,1.09861228866811
13,"food","truthJudge","did cocaine","female",NA,"Theresa","does cocaine",3,"5 years",3009,"agree-key",3,1.09861228866811
13,"employment","truthJudge","wrote a novel","male",NA,"Michael","writes novels",3,"5 years",4052,"agree-key",3,1.09861228866811
13,"entertainment","truthJudge","listened to live music","female",NA,"Kathleen","listens to live music",3,"month",3266,"agree-key",180,5.19295685089021
13,"entertainment","truthJudge","watched space launches","female",NA,"Maya","watches space launches",3,"year",4228,"agree-key",15,2.70805020110221
13,"food","truthJudge","ate caviar","male",NA,"Robert","eats caviar",3,"5 years",3121,"agree-key",3,1.09861228866811
13,"clothing","truthJudge","wore socks","female",NA,"Julia","wears socks",3,"month",2957,"agree-key",180,5.19295685089021
13,"entertainment","truthJudge","listened to Pandora","male",NA,"Eric","listens to Pandora",3,"month",3896,"agree-key",180,5.19295685089021
13,"hobby","truthJudge","ran","male",NA,"Brian","runs",3,"2 years",1974,"disagree-key",7.5,2.01490302054226
13,"hobby","truthJudge","hiked","female",NA,"Jackie","hikes",3,"2 months",3635,"agree-key",90,4.49980967033027
13,"entertainment","truthJudge","watched professional football","female",NA,"Crystal","watches professional football",3,"year",4738,"agree-key",15,2.70805020110221
13,"hobby","truthJudge","climbed mountains","female",NA,"Natalie","climbs mountains",3,"5 years",3687,"agree-key",3,1.09861228866811
13,"clothing","truthJudge","wore a suit","female",NA,"Bridgette","wears a suit",3,"month",2867,"agree-key",180,5.19295685089021
13,"entertainment","truthJudge","went to the movies","male",NA,"Derrick","goes to the movies",3,"month",2870,"agree-key",180,5.19295685089021
13,"employment","truthJudge","sold something on eBay","male",NA,"Lee","sells things on eBay",3,"year",4386,"agree-key",15,2.70805020110221
13,"food","truthJudge","drank beer","male",NA,"Cameron","drinks beer",3,"month",3100,"agree-key",180,5.19295685089021
13,"food","truthJudge","ate peanut butter","male",NA,"Alexander","eats peanut butter",3,"month",3345,"agree-key",180,5.19295685089021
13,"food","truthJudge","drank coffee","female",NA,"Esther","drinks coffee",3,"year",5694,"disagree-key",15,2.70805020110221
13,"food","truthJudge","drank beer","female",NA,"Linda","drinks beer",3,"week",3111,"agree-key",780,6.65929391968364
13,"food","truthJudge","smoked marijuana","male",NA,"Kyle","smokes marijuana",3,"5 years",5230,"disagree-key",3,1.09861228866811
13,"hobby","truthJudge","played the banjo","male",NA,"Ben","plays the banjo",3,"2 years",3573,"disagree-key",7.5,2.01490302054226
13,"clothing","truthJudge","wore a bra","female",NA,"Jennifer","wears a bra",3,"6 months",3069,"disagree-key",30,3.40119738166216
13,"clothing","truthJudge","wore socks","male",NA,"Ronald","wears socks",3,"6 months",3717,"disagree-key",30,3.40119738166216
13,"employment","truthJudge","sold a company","male",NA,"Lewis","sells companies",3,"year",6421,"agree-key",15,2.70805020110221
13,"employment","truthJudge","volunteered for a political campaign","male",NA,"John","volunteers for political campaigns",3,"5 years",3111,"agree-key",3,1.09861228866811
13,"employment","truthJudge","stole a car","female",NA,"Jessica","steals cars",3,"year",4123,"agree-key",15,2.70805020110221
13,"food","truthJudge","did cocaine","male",NA,"Lucas","does cocaine",3,"month",2993,"agree-key",180,5.19295685089021
14,"food","truthJudge","ate peanut butter","female",NA,"Angela","eats peanut butter",3,"month",6545,"agree-key",180,5.19295685089021
14,"clothing","truthJudge","wore a watch","male",NA,"Greg","wears a watch",3,"month",5016,"agree-key",180,5.19295685089021
14,"employment","truthJudge","volunteered for a soup kitchen","female",NA,"Shannon","volunteers for soup kitchens",3,"year",3395,"agree-key",15,2.70805020110221
14,"hobby","truthJudge","hiked","male",NA,"Alexander","hikes",3,"year",4232,"agree-key",15,2.70805020110221
14,"entertainment","truthJudge","went to the movies","male",NA,"David","goes to the movies",3,"2 years",3499,"agree-key",7.5,2.01490302054226
14,"hobby","truthJudge","played tennis","female",NA,"Sophia","plays tennis",3,"5 years",2938,"agree-key",3,1.09861228866811
14,"clothing","truthJudge","wore socks","male",NA,"Brian","wears socks",3,"month",3504,"agree-key",180,5.19295685089021
14,"food","truthJudge","smoked cigarettes","male",NA,"Kyle","smokes cigarettes",3,"month",3530,"agree-key",180,5.19295685089021
14,"food","truthJudge","drank beer","male",NA,"William","drinks beer",3,"week",4221,"agree-key",780,6.65929391968364
14,"employment","truthJudge","sold something on eBay","female",NA,"Linda","sells things on eBay",3,"5 years",3829,"agree-key",3,1.09861228866811
14,"clothing","truthJudge","wore socks","female",NA,"Janet","wears socks",3,"6 months",3435,"agree-key",30,3.40119738166216
14,"entertainment","truthJudge","listened to Pandora","male",NA,"Christopher","listens to Pandora",3,"year",6497,"agree-key",15,2.70805020110221
14,"clothing","truthJudge","wore a bra","male",NA,"Lucas","wears a bra",3,"month",3706,"agree-key",180,5.19295685089021
14,"food","truthJudge","smoked marijuana","male",NA,"Martin","smokes marijuana",3,"year",3691,"disagree-key",15,2.70805020110221
14,"entertainment","truthJudge","went to the ballet","male",NA,"Robert","goes to the ballet",3,"month",3016,"agree-key",180,5.19295685089021
14,"hobby","truthJudge","ran","female",NA,"Ashley","runs",3,"2 months",1921,"agree-key",90,4.49980967033027
14,"entertainment","truthJudge","watched professional football","male",NA,"Doug","watches professional football",3,"month",3289,"agree-key",180,5.19295685089021
14,"employment","truthJudge","wrote a poem","female",NA,"Kathleen","writes poems",3,"year",4751,"disagree-key",15,2.70805020110221
14,"food","truthJudge","did cocaine","male",NA,"Lewis","does cocaine",3,"year",3595,"agree-key",15,2.70805020110221
14,"entertainment","truthJudge","watched space launches","male",NA,"Tom","watches space launches",3,"year",3670,"agree-key",15,2.70805020110221
14,"food","truthJudge","drank coffee","male",NA,"Tim","drinks coffee",3,"week",2922,"agree-key",780,6.65929391968364
14,"food","truthJudge","did cocaine","female",NA,"Kim","does cocaine",3,"year",4066,"agree-key",15,2.70805020110221
14,"clothing","truthJudge","wore a suit","male",NA,"Eric","wears a suit",3,"6 months",3794,"disagree-key",30,3.40119738166216
14,"clothing","truthJudge","wore slacks","male",NA,"Jacob","wears slacks",3,"6 months",4115,"disagree-key",30,3.40119738166216
14,"hobby","truthJudge","played the banjo","female",NA,"Maya","plays the banjo",3,"2 years",3955,"disagree-key",7.5,2.01490302054226
14,"food","truthJudge","drank beer","female",NA,"Stephanie","drinks beer",3,"week",3825,"agree-key",780,6.65929391968364
14,"clothing","truthJudge","wore a suit","female",NA,"Veronica","wears a suit",3,"month",2664,"agree-key",180,5.19295685089021
14,"entertainment","truthJudge","listened to live music","female",NA,"Natalie","listens to live music",3,"week",3882,"agree-key",780,6.65929391968364
14,"food","truthJudge","ate caviar","female",NA,"Amber","eats caviar",3,"month",2040,"agree-key",180,5.19295685089021
14,"employment","truthJudge","volunteered for a political campaign","male",NA,"Lee","volunteers for political campaigns",3,"5 years",3398,"agree-key",3,1.09861228866811
14,"hobby","truthJudge","climbed mountains","male",NA,"Cameron","climbs mountains",3,"year",3337,"agree-key",15,2.70805020110221
14,"employment","truthJudge","sold a company","female",NA,"Kelly","sells companies",3,"5 years",4644,"disagree-key",3,1.09861228866811
14,"employment","truthJudge","wrote a novel","male",NA,"Scott","writes novels",3,"year",2287,"agree-key",15,2.70805020110221
14,"employment","truthJudge","stole a car","male",NA,"Ted","steals cars",3,"year",2431,"agree-key",15,2.70805020110221
14,"clothing","truthJudge","wore a bra","female",NA,"Michelle","wears a bra",3,"month",1964,"agree-key",180,5.19295685089021
14,"employment","truthJudge","stole chewing gum","male",NA,"Ben","steals chewing gum",3,"month",3668,"agree-key",180,5.19295685089021
14,"food","truthJudge","drank coffee","female",NA,"Rebecca","drinks coffee",3,"year",2420,"disagree-key",15,2.70805020110221
15,"clothing","truthJudge","wore a suit","female",NA,"Jessica","wears a suit",3,"6 months",4915,"agree-key",30,3.40119738166216
15,"clothing","truthJudge","wore socks","female",NA,"Laura","wears socks",3,"month",1617,"agree-key",180,5.19295685089021
15,"hobby","truthJudge","climbed mountains","male",NA,"Christopher","climbs mountains",3,"5 years",1442,"agree-key",3,1.09861228866811
15,"hobby","truthJudge","hiked","female",NA,"Shannon","hikes",3,"year",2376,"agree-key",15,2.70805020110221
15,"clothing","truthJudge","wore a suit","male",NA,"Daniel","wears a suit",3,"month",1623,"agree-key",180,5.19295685089021
15,"clothing","truthJudge","wore a bra","male",NA,"Lucas","wears a bra",3,"month",3060,"agree-key",180,5.19295685089021
15,"hobby","truthJudge","played the banjo","male",NA,"Brian","plays the banjo",3,"2 years",2527,"agree-key",7.5,2.01490302054226
15,"employment","truthJudge","volunteered for a political campaign","female",NA,"Jackie","volunteers for political campaigns",3,"year",5714,"agree-key",15,2.70805020110221
15,"employment","truthJudge","stole a car","male",NA,"Eric","steals cars",3,"5 years",1932,"agree-key",3,1.09861228866811
15,"entertainment","truthJudge","watched professional football","female",NA,"Hillary","watches professional football",3,"2 years",5851,"disagree-key",7.5,2.01490302054226
15,"employment","truthJudge","stole chewing gum","male",NA,"Kyle","steals chewing gum",3,"month",4873,"agree-key",180,5.19295685089021
15,"entertainment","truthJudge","watched space launches","male",NA,"Cameron","watches space launches",3,"year",3987,"agree-key",15,2.70805020110221
15,"food","truthJudge","drank beer","female",NA,"Rebecca","drinks beer",3,"week",2283,"agree-key",780,6.65929391968364
15,"entertainment","truthJudge","listened to live music","male",NA,"Seth","listens to live music",3,"month",2450,"agree-key",180,5.19295685089021
15,"clothing","truthJudge","wore slacks","female",NA,"Brooke","wears slacks",3,"6 months",3147,"agree-key",30,3.40119738166216
15,"entertainment","truthJudge","went to the movies","male",NA,"Martin","goes to the movies",3,"month",5301,"agree-key",180,5.19295685089021
15,"hobby","truthJudge","ran","male",NA,"Stephen","runs",3,"2 years",4838,"disagree-key",7.5,2.01490302054226
15,"food","truthJudge","ate caviar","male",NA,"George","eats caviar",3,"year",2949,"agree-key",15,2.70805020110221
15,"food","truthJudge","did cocaine","male",NA,"Vince","does cocaine",3,"5 years",3221,"disagree-key",3,1.09861228866811
15,"food","truthJudge","drank beer","male",NA,"Robert","drinks beer",3,"week",3913,"agree-key",780,6.65929391968364
15,"entertainment","truthJudge","went to the ballet","male",NA,"David","goes to the ballet",3,"month",3007,"agree-key",180,5.19295685089021
15,"employment","truthJudge","wrote a poem","male",NA,"Josh","writes poems",3,"year",3157,"agree-key",15,2.70805020110221
15,"employment","truthJudge","sold a company","female",NA,"Jennifer","sells companies",3,"5 years",2469,"agree-key",3,1.09861228866811
15,"clothing","truthJudge","wore socks","male",NA,"Ted","wears socks",3,"month",2737,"agree-key",180,5.19295685089021
15,"food","truthJudge","did cocaine","female",NA,"Amber","does cocaine",3,"5 years",3689,"disagree-key",3,1.09861228866811
15,"clothing","truthJudge","wore a bra","female",NA,"Veronica","wears a bra",3,"week",1294,"agree-key",780,6.65929391968364
15,"entertainment","truthJudge","listened to Pandora","female",NA,"Esther","listens to Pandora",3,"week",2689,"agree-key",780,6.65929391968364
15,"employment","truthJudge","sold something on eBay","male",NA,"Lee","sells things on eBay",3,"year",2326,"agree-key",15,2.70805020110221
15,"food","truthJudge","smoked cigarettes","female",NA,"Natalie","smokes cigarettes",3,"month",3557,"agree-key",180,5.19295685089021
15,"food","truthJudge","smoked marijuana","female",NA,"Linda","smokes marijuana",3,"year",5687,"disagree-key",15,2.70805020110221
15,"employment","truthJudge","volunteered for a soup kitchen","male",NA,"Fred","volunteers for soup kitchens",3,"5 years",8845,"disagree-key",3,1.09861228866811
15,"food","truthJudge","drank coffee","male",NA,"Tim","drinks coffee",3,"week",1449,"agree-key",780,6.65929391968364
15,"clothing","truthJudge","wore a watch","female",NA,"Tina","wears a watch",3,"6 months",3509,"disagree-key",30,3.40119738166216
15,"employment","truthJudge","wrote a novel","female",NA,"Claire","writes novels",3,"5 years",3467,"agree-key",3,1.09861228866811
15,"food","truthJudge","drank coffee","female",NA,"Kristina","drinks coffee",3,"month",6838,"agree-key",180,5.19295685089021
15,"hobby","truthJudge","played tennis","male",NA,"Stephen","plays tennis",3,"5 years",2511,"disagree-key",3,1.09861228866811
15,"food","truthJudge","ate peanut butter","female",NA,"Elizabeth","eats peanut butter",3,"month",1485,"agree-key",180,5.19295685089021
16,"employment","truthJudge","wrote a poem","female",NA,"Kim","writes poems",3,"5 years",3936,"agree-key",3,1.09861228866811
16,"food","truthJudge","smoked cigarettes","male",NA,"Christopher","smokes cigarettes",3,"month",3221,"agree-key",180,5.19295685089021
16,"clothing","truthJudge","wore a watch","male",NA,"Lee","wears a watch",3,"6 months",5234,"disagree-key",30,3.40119738166216
16,"hobby","truthJudge","played the banjo","male",NA,"Daniel","plays the banjo",3,"2 years",2439,"disagree-key",7.5,2.01490302054226
16,"clothing","truthJudge","wore a bra","male",NA,"Vince","wears a bra",3,"week",4405,"agree-key",780,6.65929391968364
16,"employment","truthJudge","sold something on eBay","female",NA,"Janet","sells things on eBay",3,"5 years",3861,"disagree-key",3,1.09861228866811
16,"food","truthJudge","did cocaine","male",NA,"Ben","does cocaine",3,"month",1842,"agree-key",180,5.19295685089021
16,"entertainment","truthJudge","listened to Pandora","male",NA,"David","listens to Pandora",3,"month",1870,"agree-key",180,5.19295685089021
16,"hobby","truthJudge","played tennis","female",NA,"Amber","plays tennis",3,"5 years",2358,"disagree-key",3,1.09861228866811
16,"clothing","truthJudge","wore a bra","female",NA,"Elizabeth","wears a bra",3,"6 months",2220,"disagree-key",30,3.40119738166216
16,"food","truthJudge","ate peanut butter","male",NA,"Anthony","eats peanut butter",3,"month",3670,"agree-key",180,5.19295685089021
16,"entertainment","truthJudge","listened to live music","female",NA,"Ashley","listens to live music",3,"week",2247,"agree-key",780,6.65929391968364
16,"clothing","truthJudge","wore slacks","male",NA,"Stephen","wears slacks",3,"week",3881,"agree-key",780,6.65929391968364
16,"hobby","truthJudge","climbed mountains","male",NA,"Alexander","climbs mountains",3,"2 years",3534,"agree-key",7.5,2.01490302054226
16,"employment","truthJudge","wrote a novel","female",NA,"Sophia","writes novels",3,"5 years",2318,"agree-key",3,1.09861228866811
16,"hobby","truthJudge","hiked","female",NA,"Esther","hikes",3,"year",2798,"agree-key",15,2.70805020110221
16,"employment","truthJudge","sold a company","female",NA,"Jackie","sells companies",3,"5 years",2557,"agree-key",3,1.09861228866811
16,"employment","truthJudge","stole chewing gum","female",NA,"Brooke","steals chewing gum",3,"year",6566,"disagree-key",15,2.70805020110221
16,"entertainment","truthJudge","watched space launches","female",NA,"Theresa","watches space launches",3,"month",2862,"agree-key",180,5.19295685089021
16,"food","truthJudge","drank coffee","female",NA,"Kristina","drinks coffee",3,"year",2517,"disagree-key",15,2.70805020110221
16,"food","truthJudge","drank coffee","male",NA,"Brian","drinks coffee",3,"week",2040,"agree-key",780,6.65929391968364
16,"food","truthJudge","drank beer","male",NA,"John","drinks beer",3,"2 weeks",6370,"agree-key",390,5.96614673912369
16,"clothing","truthJudge","wore a suit","female",NA,"Natalie","wears a suit",3,"month",2660,"agree-key",180,5.19295685089021
16,"employment","truthJudge","stole a car","male",NA,"Derrick","steals cars",3,"month",1853,"agree-key",180,5.19295685089021
16,"entertainment","truthJudge","went to the movies","female",NA,"Claire","goes to the movies",3,"year",4479,"disagree-key",15,2.70805020110221
16,"clothing","truthJudge","wore a suit","male",NA,"Fred","wears a suit",3,"month",2426,"agree-key",180,5.19295685089021
16,"food","truthJudge","did cocaine","female",NA,"Jessica","does cocaine",3,"month",1917,"agree-key",180,5.19295685089021
16,"clothing","truthJudge","wore socks","male",NA,"Jack","wears socks",3,"month",4046,"disagree-key",180,5.19295685089021
16,"food","truthJudge","smoked marijuana","male",NA,"Scott","smokes marijuana",3,"month",1973,"agree-key",180,5.19295685089021
16,"food","truthJudge","ate caviar","male",NA,"Jacob","eats caviar",3,"5 years",2250,"disagree-key",3,1.09861228866811
16,"employment","truthJudge","volunteered for a political campaign","female",NA,"Crystal","volunteers for political campaigns",3,"5 years",3457,"disagree-key",3,1.09861228866811
16,"entertainment","truthJudge","watched professional football","female",NA,"Michelle","watches professional football",3,"year",5814,"disagree-key",15,2.70805020110221
16,"clothing","truthJudge","wore socks","female",NA,"Hillary","wears socks",3,"week",6006,"agree-key",780,6.65929391968364
16,"entertainment","truthJudge","went to the ballet","male",NA,"Seth","goes to the ballet",3,"month",3332,"agree-key",180,5.19295685089021
16,"food","truthJudge","drank beer","female",NA,"Elisa","drinks beer",3,"2 weeks",1645,"agree-key",390,5.96614673912369
16,"employment","truthJudge","volunteered for a soup kitchen","male",NA,"Doug","volunteers for soup kitchens",3,"5 years",5428,"agree-key",3,1.09861228866811
16,"hobby","truthJudge","ran","female",NA,"Kelly","runs",3,"2 years",1894,"disagree-key",7.5,2.01490302054226
17,"hobby","truthJudge","played the banjo","male",NA,"Scott","plays the banjo",3,"5 years",5813,"agree-key",3,1.09861228866811
17,"clothing","truthJudge","wore a suit","male",NA,"Alexander","wears a suit",3,"6 months",6213,"disagree-key",30,3.40119738166216
17,"clothing","truthJudge","wore socks","female",NA,"Tina","wears socks",3,"week",4636,"agree-key",780,6.65929391968364
17,"food","truthJudge","drank coffee","male",NA,"Daniel","drinks coffee",3,"month",4273,"agree-key",180,5.19295685089021
17,"clothing","truthJudge","wore socks","male",NA,"Christopher","wears socks",3,"week",4745,"agree-key",780,6.65929391968364
17,"clothing","truthJudge","wore slacks","female",NA,"Stephanie","wears slacks",3,"month",4632,"agree-key",180,5.19295685089021
17,"employment","truthJudge","volunteered for a political campaign","female",NA,"Amber","volunteers for political campaigns",3,"year",4116,"agree-key",15,2.70805020110221
17,"hobby","truthJudge","hiked","male",NA,"Ben","hikes",3,"2 months",3728,"agree-key",90,4.49980967033027
17,"food","truthJudge","smoked marijuana","female",NA,"Nicole","smokes marijuana",3,"year",5536,"agree-key",15,2.70805020110221
17,"employment","truthJudge","sold something on eBay","female",NA,"Julia","sells things on eBay",3,"year",3634,"agree-key",15,2.70805020110221
17,"food","truthJudge","drank beer","male",NA,"Gabriel","drinks beer",3,"week",2573,"agree-key",780,6.65929391968364
17,"entertainment","truthJudge","went to the ballet","female",NA,"Jackie","goes to the ballet",3,"2 years",2166,"agree-key",7.5,2.01490302054226
17,"hobby","truthJudge","ran","male",NA,"Anthony","runs",3,"year",4802,"agree-key",15,2.70805020110221
17,"entertainment","truthJudge","watched space launches","male",NA,"Tom","watches space launches",3,"month",3084,"agree-key",180,5.19295685089021
17,"food","truthJudge","ate caviar","male",NA,"Eric","eats caviar",3,"5 years",3299,"agree-key",3,1.09861228866811
17,"employment","truthJudge","wrote a poem","female",NA,"Elisa","writes poems",3,"5 years",4865,"agree-key",3,1.09861228866811
17,"employment","truthJudge","stole a car","male",NA,"Jack","steals cars",3,"year",1513,"agree-key",15,2.70805020110221
17,"clothing","truthJudge","wore a bra","female",NA,"Elizabeth","wears a bra",3,"week",2385,"agree-key",780,6.65929391968364
17,"hobby","truthJudge","climbed mountains","female",NA,"Maya","climbs mountains",3,"year",1832,"agree-key",15,2.70805020110221
17,"employment","truthJudge","wrote a novel","female",NA,"Hillary","writes novels",3,"5 years",2012,"agree-key",3,1.09861228866811
17,"food","truthJudge","drank coffee","female",NA,"Natalie","drinks coffee",3,"2 weeks",1660,"agree-key",390,5.96614673912369
17,"hobby","truthJudge","played tennis","female",NA,"Claire","plays tennis",3,"5 years",1645,"agree-key",3,1.09861228866811
17,"entertainment","truthJudge","listened to Pandora","male",NA,"Robert","listens to Pandora",3,"year",5818,"disagree-key",15,2.70805020110221
17,"employment","truthJudge","sold a company","male",NA,"Ted","sells companies",3,"year",3134,"agree-key",15,2.70805020110221
17,"food","truthJudge","ate peanut butter","female",NA,"Bridgette","eats peanut butter",3,"year",24784,"agree-key",15,2.70805020110221
17,"food","truthJudge","did cocaine","male",NA,"Greg","does cocaine",3,"5 years",3944,"disagree-key",3,1.09861228866811
17,"food","truthJudge","smoked cigarettes","female",NA,"Ashley","smokes cigarettes",3,"week",3662,"agree-key",780,6.65929391968364
17,"clothing","truthJudge","wore a watch","male",NA,"Michael","wears a watch",3,"week",9568,"agree-key",780,6.65929391968364
17,"entertainment","truthJudge","went to the movies","male",NA,"Derrick","goes to the movies",3,"month",2328,"agree-key",180,5.19295685089021
17,"employment","truthJudge","stole chewing gum","female",NA,"Kristina","steals chewing gum",3,"5 years",5989,"agree-key",3,1.09861228866811
17,"food","truthJudge","drank beer","female",NA,"Brooke","drinks beer",3,"week",2306,"agree-key",780,6.65929391968364
17,"entertainment","truthJudge","listened to live music","female",NA,"Alicia","listens to live music",3,"year",2399,"agree-key",15,2.70805020110221
17,"entertainment","truthJudge","watched professional football","female",NA,"Laura","watches professional football",3,"month",1950,"agree-key",180,5.19295685089021
17,"food","truthJudge","did cocaine","female",NA,"Theresa","does cocaine",3,"month",1743,"agree-key",180,5.19295685089021
17,"employment","truthJudge","volunteered for a soup kitchen","male",NA,"Jacob","volunteers for soup kitchens",3,"5 years",8975,"agree-key",3,1.09861228866811
17,"clothing","truthJudge","wore a bra","male",NA,"William","wears a bra",3,"month",4847,"agree-key",180,5.19295685089021
17,"clothing","truthJudge","wore a suit","female",NA,"Janet","wears a suit",3,"week",1892,"agree-key",780,6.65929391968364
18,"employment","truthJudge","wrote a novel","male",NA,"Jacob","writes novels",3,"5 years",4369,"agree-key",3,1.09861228866811
18,"food","truthJudge","drank beer","female",NA,"Claire","drinks beer",3,"month",19172,"agree-key",180,5.19295685089021
18,"clothing","truthJudge","wore socks","female",NA,"Nicole","wears socks",3,"month",20,"agree-key",180,5.19295685089021
18,"entertainment","truthJudge","went to the ballet","male",NA,"Lucas","goes to the ballet",3,"2 years",6261,"agree-key",7.5,2.01490302054226
18,"clothing","truthJudge","wore a suit","male",NA,"Cameron","wears a suit",3,"month",2928,"agree-key",180,5.19295685089021
18,"food","truthJudge","did cocaine","female",NA,"Janet","does cocaine",3,"week",2148,"agree-key",780,6.65929391968364
18,"clothing","truthJudge","wore socks","male",NA,"John","wears socks",3,"6 months",3064,"disagree-key",30,3.40119738166216
18,"employment","truthJudge","stole chewing gum","male",NA,"Eric","steals chewing gum",3,"year",3367,"agree-key",15,2.70805020110221
18,"employment","truthJudge","wrote a poem","male",NA,"Martin","writes poems",3,"year",3097,"agree-key",15,2.70805020110221
18,"hobby","truthJudge","ran","female",NA,"Jackie","runs",3,"week",1998,"agree-key",780,6.65929391968364
18,"food","truthJudge","drank beer","male",NA,"Brian","drinks beer",3,"year",2721,"disagree-key",15,2.70805020110221
18,"employment","truthJudge","volunteered for a political campaign","male",NA,"Derrick","volunteers for political campaigns",3,"5 years",3543,"agree-key",3,1.09861228866811
18,"food","truthJudge","smoked marijuana","female",NA,"Sophia","smokes marijuana",3,"5 years",10335,"disagree-key",3,1.09861228866811
18,"entertainment","truthJudge","watched professional football","female",NA,"Natalie","watches professional football",3,"2 years",2492,"disagree-key",7.5,2.01490302054226
18,"food","truthJudge","smoked cigarettes","male",NA,"Anthony","smokes cigarettes",3,"year",1909,"disagree-key",15,2.70805020110221
18,"food","truthJudge","drank coffee","male",NA,"Seth","drinks coffee",3,"week",2858,"agree-key",780,6.65929391968364
18,"hobby","truthJudge","played tennis","male",NA,"Doug","plays tennis",3,"year",2491,"disagree-key",15,2.70805020110221
18,"food","truthJudge","did cocaine","male",NA,"Tim","does cocaine",3,"month",2397,"agree-key",180,5.19295685089021
18,"hobby","truthJudge","climbed mountains","male",NA,"Scott","climbs mountains",3,"5 years",1997,"agree-key",3,1.09861228866811
18,"clothing","truthJudge","wore a bra","male",NA,"Tom","wears a bra",3,"month",2820,"agree-key",180,5.19295685089021
18,"entertainment","truthJudge","listened to Pandora","female",NA,"Kelly","listens to Pandora",3,"month",2245,"agree-key",180,5.19295685089021
18,"entertainment","truthJudge","listened to live music","female",NA,"Ashley","listens to live music",3,"year",3104,"agree-key",15,2.70805020110221
18,"employment","truthJudge","sold a company","male",NA,"Stephen","sells companies",3,"year",1751,"agree-key",15,2.70805020110221
18,"clothing","truthJudge","wore a bra","female",NA,"Elizabeth","wears a bra",3,"week",2180,"agree-key",780,6.65929391968364
18,"hobby","truthJudge","played the banjo","male",NA,"Vince","plays the banjo",3,"2 years",3498,"disagree-key",7.5,2.01490302054226
18,"food","truthJudge","ate peanut butter","female",NA,"Esther","eats peanut butter",3,"month",2949,"agree-key",180,5.19295685089021
18,"employment","truthJudge","sold something on eBay","female",NA,"Rebecca","sells things on eBay",3,"5 years",3140,"disagree-key",3,1.09861228866811
18,"food","truthJudge","drank coffee","female",NA,"Stephanie","drinks coffee",3,"2 weeks",2433,"agree-key",390,5.96614673912369
18,"clothing","truthJudge","wore a watch","male",NA,"Alexander","wears a watch",3,"month",2900,"agree-key",180,5.19295685089021
18,"clothing","truthJudge","wore a suit","female",NA,"Monica","wears a suit",3,"week",1886,"agree-key",780,6.65929391968364
18,"employment","truthJudge","volunteered for a soup kitchen","male",NA,"David","volunteers for soup kitchens",3,"5 years",2079,"agree-key",3,1.09861228866811
18,"employment","truthJudge","stole a car","female",NA,"Angela","steals cars",3,"year",1940,"agree-key",15,2.70805020110221
18,"food","truthJudge","ate caviar","female",NA,"Kim","eats caviar",3,"month",1759,"agree-key",180,5.19295685089021
18,"entertainment","truthJudge","watched space launches","male",NA,"Stephen","watches space launches",3,"2 years",5477,"agree-key",7.5,2.01490302054226
18,"clothing","truthJudge","wore slacks","male",NA,"Josh","wears slacks",3,"week",2495,"agree-key",780,6.65929391968364
18,"hobby","truthJudge","hiked","female",NA,"Laura","hikes",3,"year",1639,"agree-key",15,2.70805020110221
18,"entertainment","truthJudge","went to the movies","female",NA,"Elisa","goes to the movies",3,"month",2510,"agree-key",180,5.19295685089021
19,"clothing","truthJudge","wore a bra","male",NA,"Ronald","wears a bra",3,"6 months",6960,"disagree-key",30,3.40119738166216
19,"entertainment","truthJudge","listened to live music","male",NA,"Kyle","listens to live music",3,"year",7230,"disagree-key",15,2.70805020110221
19,"clothing","truthJudge","wore a suit","male",NA,"Tim","wears a suit",3,"week",1253,"disagree-key",780,6.65929391968364
19,"entertainment","truthJudge","watched professional football","female",NA,"Monica","watches professional football",3,"month",5465,"agree-key",180,5.19295685089021
19,"food","truthJudge","drank coffee","female",NA,"Janet","drinks coffee",3,"month",1611,"agree-key",180,5.19295685089021
19,"hobby","truthJudge","hiked","female",NA,"Kelly","hikes",3,"year",1630,"agree-key",15,2.70805020110221
19,"employment","truthJudge","stole a car","female",NA,"Jackie","steals cars",3,"5 years",2805,"agree-key",3,1.09861228866811
19,"employment","truthJudge","sold something on eBay","male",NA,"Lee","sells things on eBay",3,"5 years",2914,"disagree-key",3,1.09861228866811
19,"food","truthJudge","smoked marijuana","male",NA,"Christopher","smokes marijuana",3,"month",3312,"agree-key",180,5.19295685089021
19,"employment","truthJudge","wrote a novel","female",NA,"Nicole","writes novels",3,"5 years",4317,"disagree-key",3,1.09861228866811
19,"hobby","truthJudge","played tennis","female",NA,"Amber","plays tennis",3,"2 years",2009,"disagree-key",7.5,2.01490302054226
19,"employment","truthJudge","stole chewing gum","male",NA,"Ben","steals chewing gum",3,"month",3891,"agree-key",180,5.19295685089021
19,"hobby","truthJudge","played the banjo","female",NA,"Laura","plays the banjo",3,"2 years",2041,"disagree-key",7.5,2.01490302054226
19,"food","truthJudge","ate peanut butter","male",NA,"Seth","eats peanut butter",3,"year",1733,"disagree-key",15,2.70805020110221
19,"employment","truthJudge","volunteered for a political campaign","male",NA,"Martin","volunteers for political campaigns",3,"5 years",2547,"disagree-key",3,1.09861228866811
19,"entertainment","truthJudge","went to the movies","male",NA,"Lewis","goes to the movies",3,"2 years",2003,"disagree-key",7.5,2.01490302054226
19,"food","truthJudge","did cocaine","male",NA,"Scott","does cocaine",3,"month",2258,"agree-key",180,5.19295685089021
19,"employment","truthJudge","wrote a poem","female",NA,"Michelle","writes poems",3,"year",1985,"disagree-key",15,2.70805020110221
19,"food","truthJudge","ate caviar","female",NA,"Alicia","eats caviar",3,"year",4157,"disagree-key",15,2.70805020110221
19,"clothing","truthJudge","wore a watch","female",NA,"Linda","wears a watch",3,"week",2305,"agree-key",780,6.65929391968364
19,"food","truthJudge","drank coffee","male",NA,"Greg","drinks coffee",3,"year",1898,"disagree-key",15,2.70805020110221
19,"clothing","truthJudge","wore socks","female",NA,"Theresa","wears socks",3,"6 months",1652,"disagree-key",30,3.40119738166216
19,"employment","truthJudge","sold a company","male",NA,"Robert","sells companies",3,"year",2712,"agree-key",15,2.70805020110221
19,"food","truthJudge","drank beer","female",NA,"Angela","drinks beer",3,"month",2221,"disagree-key",180,5.19295685089021
19,"food","truthJudge","smoked cigarettes","female",NA,"Ashley","smokes cigarettes",3,"month",2023,"disagree-key",180,5.19295685089021
19,"entertainment","truthJudge","listened to Pandora","male",NA,"Michael","listens to Pandora",3,"week",1410,"agree-key",780,6.65929391968364
19,"employment","truthJudge","volunteered for a soup kitchen","male",NA,"John","volunteers for soup kitchens",3,"5 years",1624,"disagree-key",3,1.09861228866811
19,"clothing","truthJudge","wore socks","male",NA,"Josh","wears socks",3,"6 months",1443,"disagree-key",30,3.40119738166216
19,"entertainment","truthJudge","watched space launches","male",NA,"Stephen","watches space launches",3,"year",3051,"agree-key",15,2.70805020110221
19,"clothing","truthJudge","wore a suit","female",NA,"Hillary","wears a suit",3,"month",2229,"agree-key",180,5.19295685089021
19,"food","truthJudge","did cocaine","female",NA,"Veronica","does cocaine",3,"week",2056,"agree-key",780,6.65929391968364
19,"entertainment","truthJudge","went to the ballet","female",NA,"Kim","goes to the ballet",3,"year",3050,"disagree-key",15,2.70805020110221
19,"clothing","truthJudge","wore slacks","female",NA,"Melinda","wears slacks",3,"month",2541,"disagree-key",180,5.19295685089021
19,"hobby","truthJudge","climbed mountains","male",NA,"Vince","climbs mountains",3,"5 years",917,"disagree-key",3,1.09861228866811
19,"clothing","truthJudge","wore a bra","female",NA,"Julia","wears a bra",3,"week",1805,"agree-key",780,6.65929391968364
19,"food","truthJudge","drank beer","male",NA,"David","drinks beer",3,"month",2621,"agree-key",180,5.19295685089021
19,"hobby","truthJudge","ran","male",NA,"Eric","runs",3,"year",1788,"disagree-key",15,2.70805020110221
20,"clothing","truthJudge","wore a watch","male",NA,"George","wears a watch",3,"week",8714,"disagree-key",780,6.65929391968364
20,"clothing","truthJudge","wore a bra","male",NA,"Scott","wears a bra",3,"week",3758,"disagree-key",780,6.65929391968364
20,"hobby","truthJudge","played tennis","female",NA,"Nicole","plays tennis",3,"2 years",5149,"agree-key",7.5,2.01490302054226
20,"entertainment","truthJudge","went to the movies","female",NA,"Michelle","goes to the movies",3,"year",4493,"disagree-key",15,2.70805020110221
20,"hobby","truthJudge","played the banjo","female",NA,"Kathleen","plays the banjo",3,"year",4993,"disagree-key",15,2.70805020110221
20,"hobby","truthJudge","climbed mountains","female",NA,"Angela","climbs mountains",3,"year",3981,"agree-key",15,2.70805020110221
20,"food","truthJudge","did cocaine","male",NA,"Christopher","does cocaine",3,"year",4415,"disagree-key",15,2.70805020110221
20,"employment","truthJudge","volunteered for a soup kitchen","female",NA,"Hillary","volunteers for soup kitchens",3,"5 years",5524,"agree-key",3,1.09861228866811
20,"food","truthJudge","drank beer","female",NA,"Tina","drinks beer",3,"month",3276,"disagree-key",180,5.19295685089021
20,"food","truthJudge","drank beer","male",NA,"Gabriel","drinks beer",3,"2 weeks",5075,"agree-key",390,5.96614673912369
20,"entertainment","truthJudge","watched space launches","female",NA,"Natalie","watches space launches",3,"month",4692,"agree-key",180,5.19295685089021
20,"entertainment","truthJudge","listened to Pandora","male",NA,"Ben","listens to Pandora",3,"week",5182,"agree-key",780,6.65929391968364
20,"food","truthJudge","ate peanut butter","female",NA,"Kim","eats peanut butter",3,"year",4876,"disagree-key",15,2.70805020110221
20,"food","truthJudge","did cocaine","female",NA,"Ashley","does cocaine",3,"month",3045,"agree-key",180,5.19295685089021
20,"hobby","truthJudge","hiked","female",NA,"Alicia","hikes",3,"year",3629,"agree-key",15,2.70805020110221
20,"entertainment","truthJudge","watched professional football","female",NA,"Janet","watches professional football",3,"month",4573,"agree-key",180,5.19295685089021
20,"entertainment","truthJudge","went to the ballet","male",NA,"Tim","goes to the ballet",3,"year",4126,"agree-key",15,2.70805020110221
20,"employment","truthJudge","sold something on eBay","male",NA,"Brian","sells things on eBay",3,"year",3508,"disagree-key",15,2.70805020110221
20,"employment","truthJudge","wrote a poem","female",NA,"Kristina","writes poems",3,"5 years",4980,"disagree-key",3,1.09861228866811
20,"food","truthJudge","drank coffee","female",NA,"Claire","drinks coffee",3,"2 weeks",3564,"disagree-key",390,5.96614673912369
20,"food","truthJudge","smoked marijuana","male",NA,"Vince","smokes marijuana",3,"month",3061,"disagree-key",180,5.19295685089021
20,"clothing","truthJudge","wore a suit","female",NA,"Julia","wears a suit",3,"week",6032,"agree-key",780,6.65929391968364
20,"food","truthJudge","drank coffee","male",NA,"Derrick","drinks coffee",3,"year",3007,"disagree-key",15,2.70805020110221
20,"clothing","truthJudge","wore socks","female",NA,"Elisa","wears socks",3,"6 months",2852,"disagree-key",30,3.40119738166216
20,"clothing","truthJudge","wore a bra","female",NA,"Sophia","wears a bra",3,"month",2861,"disagree-key",180,5.19295685089021
20,"employment","truthJudge","sold a company","female",NA,"Shannon","sells companies",3,"year",4364,"agree-key",15,2.70805020110221
