"workerid","category","trial_type","evidenceStatement","characterGender","freqLevel","extraStatement","characterName","habitual","n_instances","time_period","rt","response","condition"
0,"employment","truthJudge","volunteered for a political campaign","female",NA,"","Monica","volunteers for political campaigns",3,"5 years",7452,"agree-key","baseline"
0,"hobby","truthJudge","climbed mountains","female",NA,"","Kim","climbs mountains",3,"5 years",1921,"agree-key","baseline"
0,"food","truthJudge","smoked cigarettes","male",NA,"","Daniel","smokes cigarettes",3,"month",2728,"agree-key","baseline"
0,"employment","truthJudge","stole a car","female",NA,"Yesterday, Alicia learned a new technique for breaking into cars.","Alicia","steals cars",3,"5 years",2934,"agree-key","enabling"
0,"food","truthJudge","did cocaine","male",NA,"Yesterday, Josh wanted to get high and bought some cocaine.","Josh","does cocaine",3,"year",2611,"agree-key","enabling"
0,"clothing","truthJudge","wore a suit","male",NA,"Yesterday, Brian got fired from his job on Wall Street and now works in a pizza parlor.","Brian","wears a suit",3,"month",2333,"agree-key","preventative"
0,"employment","truthJudge","wrote a poem","male",NA,"Yesterday, Tom finished an MFA program and quit his other job to focus on writing poems.","Tom","writes poems",3,"year",2309,"agree-key","enabling"
0,"food","truthJudge","drank beer","male",NA,"Yesterday, Alexander gave up alcohol and entered into Alcoholics Anonymous.","Alexander","drinks beer",3,"month",3837,"agree-key","preventative"
0,"hobby","truthJudge","hiked","female",NA,"Yesterday, Angela remembered how much fun those times were and bought a lot of new hiking gear.","Angela","hikes",3,"year",2288,"agree-key","enabling"
0,"hobby","truthJudge","played the banjo","female",NA,"","Michelle","plays the banjo",3,"year",1958,"agree-key","baseline"
0,"food","truthJudge","drank coffee","male",NA,"Yesterday, Seth developed a caffeine allergy and decided to give up all caffeine.","Seth","drinks coffee",3,"month",2045,"agree-key","preventative"
0,"hobby","truthJudge","played tennis","male",NA,"","Fred","plays tennis",3,"year",1549,"agree-key","baseline"
0,"entertainment","truthJudge","watched space launches","female",NA,"Yesterday, Tina went through a radical transformation and now it is against her belief to witness anything relating to space travel.","Tina","watches space launches",3,"2 years",3478,"agree-key","preventative"
0,"food","truthJudge","ate caviar","male",NA,"Yesterday, Kyle developed a seafood allergy.","Kyle","eats caviar",3,"5 years",2857,"agree-key","preventative"
0,"employment","truthJudge","stole chewing gum","female",NA,"Yesterday, Maya learned a new trick to distract shopkeepers.","Maya","steals chewing gum",3,"5 years",3441,"disagree-key","enabling"
0,"employment","truthJudge","wrote a novel","female",NA,"","Kelly","writes novels",3,"5 years",1883,"agree-key","baseline"
0,"food","truthJudge","smoked marijuana","male",NA,"Yesterday, Stephen wanted to get high and bought some marijuana.","Stephen","smokes marijuana",3,"year",1836,"agree-key","enabling"
0,"entertainment","truthJudge","watched professional football","female",NA,"Yesterday, Kristina learned about all the corruption in professional sports and no longer can watch it.","Kristina","watches professional football",3,"year",2479,"agree-key","preventative"
0,"food","truthJudge","ate peanut butter","female",NA,"Yesterday, Linda developed a peanut allergy.","Linda","eats peanut butter",3,"year",2063,"agree-key","preventative"
0,"employment","truthJudge","volunteered for a soup kitchen","male",NA,"Yesterday, Ted researched a new soup kitchen in the area and is going to volunteer with them.","Ted","volunteers for soup kitchens",3,"5 years",3510,"agree-key","enabling"
0,"hobby","truthJudge","ran","female",NA,"","Elisa","runs",3,"2 months",2429,"agree-key","baseline"
1,"food","truthJudge","smoked cigarettes","female",NA,"Yesterday, Crystal quit smoking cigarettes.","Crystal","smokes cigarettes",3,"month",4552,"disagree-key","preventative"
1,"hobby","truthJudge","played tennis","male",NA,"","Alexander","plays tennis",3,"year",2256,"disagree-key","baseline"
1,"employment","truthJudge","stole chewing gum","male",NA,"","Brian","steals chewing gum",3,"5 years",2337,"agree-key","baseline"
1,"entertainment","truthJudge","watched space launches","male",NA,"Yesterday, Daniel remembered how much enjoyable that was and researched all of the space launches in the next year within driving distance.","Daniel","watches space launches",3,"2 years",4785,"agree-key","enabling"
1,"food","truthJudge","drank beer","male",NA,"","Robert","drinks beer",3,"month",1753,"agree-key","baseline"
1,"employment","truthJudge","volunteered for a political campaign","female",NA,"","Michelle","volunteers for political campaigns",3,"5 years",1392,"agree-key","baseline"
1,"hobby","truthJudge","climbed mountains","female",NA,"Yesterday, Nicole remembered how much fun that was bought a lot of new mountain climbing gear.","Nicole","climbs mountains",3,"5 years",1024,"agree-key","enabling"
1,"food","truthJudge","did cocaine","female",NA,"Yesterday, Linda wanted to get high and bought some cocaine.","Linda","does cocaine",3,"year",3378,"agree-key","enabling"
1,"employment","truthJudge","stole a car","female",NA,"","Julia","steals cars",3,"5 years",409,"agree-key","baseline"
1,"employment","truthJudge","wrote a novel","male",NA,"Yesterday, Vince finished an MFA program and quit his other job to focus on writing novels.","Vince","writes novels",3,"5 years",1105,"agree-key","enabling"
1,"food","truthJudge","drank coffee","female",NA,"Yesterday, Maya wanted a morning jolt and bought a pound of fresh roasted coffee.","Maya","drinks coffee",3,"month",763,"agree-key","enabling"
1,"food","truthJudge","smoked marijuana","male",NA,"Yesterday, Jack wanted to get high and bought some marijuana.","Jack","smokes marijuana",3,"year",748,"disagree-key","enabling"
1,"hobby","truthJudge","ran","male",NA,"Yesterday, William remembered how much fun those times were and bought a new pair of running shoes.","William","runs",3,"2 months",477,"agree-key","enabling"
1,"clothing","truthJudge","wore a suit","male",NA,"","Christopher","wears a suit",3,"month",353,"agree-key","baseline"
1,"employment","truthJudge","volunteered for a soup kitchen","male",NA,"Yesterday, Jacob grew disillusioned with the soup kitchen system and wants nothing to do with it anymore.","Jacob","volunteers for soup kitchens",3,"5 years",276,"disagree-key","preventative"
1,"hobby","truthJudge","hiked","male",NA,"Yesterday, Lucas was in a motorcycle accident and will never walk again.","Lucas","hikes",3,"year",343,"agree-key","preventative"
1,"food","truthJudge","ate peanut butter","male",NA,"Yesterday, Scott developed a peanut allergy.","Scott","eats peanut butter",3,"year",298,"agree-key","preventative"
1,"food","truthJudge","ate caviar","female",NA,"Yesterday, Esther developed a seafood allergy.","Esther","eats caviar",3,"5 years",276,"agree-key","preventative"
1,"employment","truthJudge","wrote a poem","female",NA,"Yesterday, Ashley became fed up with the poetry world and decided to never write poems again.","Ashley","writes poems",3,"year",277,"disagree-key","preventative"
1,"hobby","truthJudge","played the banjo","female",NA,"Yesterday, Sophia developed crippling arthritis in her hands and no longer can play musical instruments.","Sophia","plays the banjo",3,"year",246,"agree-key","preventative"
1,"entertainment","truthJudge","watched professional football","female",NA,"","Bridgette","watches professional football",3,"year",249,"agree-key","baseline"
2,"food","truthJudge","smoked cigarettes","female",NA,"Yesterday, Rebecca wanted a smoke and bought a pack of cigarettes.","Rebecca","smokes cigarettes",3,"month",7108,"agree-key","enabling"
2,"hobby","truthJudge","played tennis","male",NA,"Yesterday, John remembered how much fun that was and bought a new tennis racket.","John","plays tennis",3,"year",4031,"agree-key","enabling"
2,"employment","truthJudge","wrote a poem","female",NA,"Yesterday, Stephanie became fed up with the poetry world and decided to never write poems again.","Stephanie","writes poems",3,"year",4589,"disagree-key","preventative"
2,"employment","truthJudge","wrote a novel","female",NA,"Yesterday, Crystal finished an MFA program and quit her other job to focus on writing novels.","Crystal","writes novels",3,"5 years",6781,"agree-key","enabling"
2,"food","truthJudge","drank coffee","male",NA,"","Derrick","drinks coffee",3,"month",2495,"agree-key","baseline"
2,"employment","truthJudge","volunteered for a political campaign","male",NA,"Yesterday, Tom grew disillusioned with the political system and wants nothing to do with it anymore.","Tom","volunteers for political campaigns",3,"5 years",4921,"disagree-key","preventative"
2,"hobby","truthJudge","played the banjo","male",NA,"Yesterday, Stephen developed crippling arthritis in his hands and no longer can play musical instruments.","Stephen","plays the banjo",3,"year",6123,"disagree-key","preventative"
2,"hobby","truthJudge","climbed mountains","female",NA,"Yesterday, Kathleen remembered how much fun that was bought a lot of new mountain climbing gear.","Kathleen","climbs mountains",3,"5 years",4884,"agree-key","enabling"
2,"food","truthJudge","ate caviar","male",NA,"","Lewis","eats caviar",3,"5 years",2759,"agree-key","baseline"
2,"hobby","truthJudge","ran","male",NA,"Yesterday, Tim was in a car accident and became permanently paralyzed from the waist down.","Tim","runs",3,"2 months",4166,"disagree-key","preventative"
2,"food","truthJudge","ate peanut butter","female",NA,"","Brooke","eats peanut butter",3,"year",2478,"agree-key","baseline"
2,"employment","truthJudge","stole a car","female",NA,"Yesterday, Shannon learned a new technique for breaking into cars.","Shannon","steals cars",3,"5 years",5853,"agree-key","enabling"
2,"food","truthJudge","smoked marijuana","male",NA,"","Doug","smokes marijuana",3,"year",3569,"agree-key","baseline"
2,"food","truthJudge","did cocaine","male",NA,"Yesterday, Martin wanted to get high and bought some cocaine.","Martin","does cocaine",3,"year",4454,"agree-key","enabling"
2,"entertainment","truthJudge","watched professional football","male",NA,"Yesterday, Ronald learned about all the corruption in professional sports and no longer can watch it.","Ronald","watches professional football",3,"year",5893,"disagree-key","preventative"
2,"hobby","truthJudge","hiked","male",NA,"","Michael","hikes",3,"year",3213,"agree-key","baseline"
2,"clothing","truthJudge","wore a suit","female",NA,"","Michelle","wears a suit",3,"month",6102,"disagree-key","baseline"
2,"employment","truthJudge","stole chewing gum","female",NA,"Yesterday, Jackie learned a new trick to distract shopkeepers.","Jackie","steals chewing gum",3,"5 years",7062,"agree-key","enabling"
2,"entertainment","truthJudge","watched space launches","male",NA,"Yesterday, Kyle went through a radical transformation and now it is against his belief to witness anything relating to space travel.","Kyle","watches space launches",3,"2 years",7670,"disagree-key","preventative"
2,"food","truthJudge","drank beer","male",NA,"Yesterday, Seth gave up alcohol and entered into Alcoholics Anonymous.","Seth","drinks beer",3,"month",4430,"disagree-key","preventative"
2,"employment","truthJudge","volunteered for a soup kitchen","male",NA,"","Brian","volunteers for soup kitchens",3,"5 years",5445,"agree-key","baseline"
3,"employment","truthJudge","stole a car","male",NA,"Yesterday, Lucas learned a new technique for breaking into cars.","Lucas","steals cars",3,"5 years",10968,"agree-key","enabling"
3,"employment","truthJudge","wrote a novel","male",NA,"Yesterday, Eric finished an MFA program and quit his other job to focus on writing novels.","Eric","writes novels",3,"5 years",6347,"agree-key","enabling"
3,"clothing","truthJudge","wore a suit","male",NA,"Yesterday, Greg got fired from his job on Wall Street and now works in a pizza parlor.","Greg","wears a suit",3,"month",9488,"disagree-key","preventative"
3,"hobby","truthJudge","played tennis","male",NA,"Yesterday, Michael developed crippling arthritis in both elbows and can only move his arms extremely slowly.","Michael","plays tennis",3,"year",4531,"disagree-key","preventative"
3,"food","truthJudge","drank coffee","female",NA,"Yesterday, Brooke developed a caffeine allergy and decided to give up all caffeine.","Brooke","drinks coffee",3,"month",3128,"disagree-key","preventative"
3,"food","truthJudge","ate caviar","female",NA,"","Nicole","eats caviar",3,"5 years",7873,"agree-key","baseline"
3,"food","truthJudge","did cocaine","male",NA,"","Stephen","does cocaine",3,"year",6106,"agree-key","baseline"
3,"hobby","truthJudge","ran","female",NA,"Yesterday, Claire remembered how much fun those times were and bought a new pair of running shoes.","Claire","runs",3,"2 months",7894,"agree-key","enabling"
3,"food","truthJudge","drank beer","male",NA,"Yesterday, Daniel gave up alcohol and entered into Alcoholics Anonymous.","Daniel","drinks beer",3,"month",6965,"disagree-key","preventative"
3,"food","truthJudge","ate peanut butter","male",NA,"","Ben","eats peanut butter",3,"year",2980,"agree-key","baseline"
3,"food","truthJudge","smoked cigarettes","female",NA,"Yesterday, Alicia quit smoking cigarettes.","Alicia","smokes cigarettes",3,"month",8046,"disagree-key","preventative"
3,"employment","truthJudge","wrote a poem","male",NA,"Yesterday, Vince finished an MFA program and quit his other job to focus on writing poems.","Vince","writes poems",3,"year",5580,"agree-key","enabling"
3,"hobby","truthJudge","climbed mountains","female",NA,"Yesterday, Kristina remembered how much fun that was bought a lot of new mountain climbing gear.","Kristina","climbs mountains",3,"5 years",3565,"agree-key","enabling"
3,"employment","truthJudge","stole chewing gum","male",NA,"","Cameron","steals chewing gum",3,"5 years",2793,"agree-key","baseline"
3,"hobby","truthJudge","played the banjo","male",NA,"Yesterday, Tim remembered how much fun that was and joined his friend&quotechars band as the banjoist.","Tim","plays the banjo",3,"year",5597,"agree-key","enabling"
3,"hobby","truthJudge","hiked","male",NA,"","Seth","hikes",3,"year",1662,"agree-key","baseline"
3,"food","truthJudge","smoked marijuana","female",NA,"","Theresa","smokes marijuana",3,"year",1171,"agree-key","baseline"
3,"entertainment","truthJudge","watched professional football","male",NA,"Yesterday, George learned about all the corruption in professional sports and no longer can watch it.","George","watches professional football",3,"year",4549,"disagree-key","preventative"
3,"employment","truthJudge","volunteered for a political campaign","female",NA,"Yesterday, Tina researched a new political candidate in the area and is going to volunteer with them.","Tina","volunteers for political campaigns",3,"5 years",4069,"agree-key","enabling"
3,"entertainment","truthJudge","watched space launches","female",NA,"","Maya","watches space launches",3,"2 years",1862,"agree-key","baseline"
3,"employment","truthJudge","volunteered for a soup kitchen","male",NA,"Yesterday, Jacob grew disillusioned with the soup kitchen system and wants nothing to do with it anymore.","Jacob","volunteers for soup kitchens",3,"5 years",6349,"disagree-key","preventative"
4,"food","truthJudge","smoked cigarettes","female",NA,"","Angela","smokes cigarettes",3,"month",50867,"agree-key","baseline"
4,"employment","truthJudge","volunteered for a political campaign","female",NA,"Yesterday, Kristina researched a new political candidate in the area and is going to volunteer with them.","Kristina","volunteers for political campaigns",3,"5 years",48289,"agree-key","enabling"
4,"employment","truthJudge","stole chewing gum","female",NA,"Yesterday, Kathleen learned a new trick to distract shopkeepers.","Kathleen","steals chewing gum",3,"5 years",3769,"agree-key","enabling"
4,"entertainment","truthJudge","watched professional football","female",NA,"","Julia","watches professional football",3,"year",5025,"agree-key","baseline"
4,"employment","truthJudge","volunteered for a soup kitchen","male",NA,"Yesterday, Stephen grew disillusioned with the soup kitchen system and wants nothing to do with it anymore.","Stephen","volunteers for soup kitchens",3,"5 years",2888,"agree-key","preventative"
4,"food","truthJudge","ate caviar","male",NA,"Yesterday, Lewis developed a seafood allergy.","Lewis","eats caviar",3,"5 years",8307,"disagree-key","preventative"
4,"hobby","truthJudge","ran","female",NA,"Yesterday, Jackie was in a car accident and became permanently paralyzed from the waist down.","Jackie","runs",3,"2 months",5922,"disagree-key","preventative"
4,"hobby","truthJudge","hiked","male",NA,"Yesterday, Jacob remembered how much fun those times were and bought a lot of new hiking gear.","Jacob","hikes",3,"year",5011,"agree-key","enabling"
4,"hobby","truthJudge","climbed mountains","female",NA,"","Natalie","climbs mountains",3,"5 years",4275,"agree-key","baseline"
4,"clothing","truthJudge","wore a suit","female",NA,"Yesterday, Jessica got a high paying job on Wall Street.","Jessica","wears a suit",3,"month",5048,"agree-key","enabling"
4,"employment","truthJudge","wrote a novel","male",NA,"Yesterday, Tom became fed up with the literary world and decided to never write anything again.","Tom","writes novels",3,"5 years",4984,"disagree-key","preventative"
4,"food","truthJudge","smoked marijuana","female",NA,"","Tina","smokes marijuana",3,"year",1916,"agree-key","baseline"
4,"entertainment","truthJudge","watched space launches","female",NA,"Yesterday, Esther went through a radical transformation and now it is against her belief to witness anything relating to space travel.","Esther","watches space launches",3,"2 years",8990,"disagree-key","preventative"
4,"food","truthJudge","drank beer","male",NA,"","Fred","drinks beer",3,"month",1938,"agree-key","baseline"
4,"hobby","truthJudge","played tennis","male",NA,"Yesterday, Robert remembered how much fun that was and bought a new tennis racket.","Robert","plays tennis",3,"year",3032,"agree-key","enabling"
4,"employment","truthJudge","stole a car","female",NA,"Yesterday, Kelly got caught and went through a radical transformation, vowing to never break the law again.","Kelly","steals cars",3,"5 years",4488,"disagree-key","preventative"
4,"hobby","truthJudge","played the banjo","female",NA,"","Elizabeth","plays the banjo",3,"year",1969,"agree-key","baseline"
4,"employment","truthJudge","wrote a poem","male",NA,"Yesterday, David finished an MFA program and quit his other job to focus on writing poems.","David","writes poems",3,"year",8286,"agree-key","enabling"
4,"food","truthJudge","did cocaine","female",NA,"Yesterday, Maya realized she is severely allergic to cocaine and will no longer do it.","Maya","does cocaine",3,"year",3627,"disagree-key","preventative"
4,"food","truthJudge","ate peanut butter","male",NA,"Yesterday, Alexander learned about the dietary benefits of eating peanut butter and bought a jar at the supermaket.","Alexander","eats peanut butter",3,"year",5185,"agree-key","enabling"
4,"food","truthJudge","drank coffee","female",NA,"","Hillary","drinks coffee",3,"month",2057,"agree-key","baseline"
5,"entertainment","truthJudge","watched professional football","male",NA,"","Alexander","watches professional football",3,"year",7386,"disagree-key","baseline"
5,"hobby","truthJudge","hiked","female",NA,"Yesterday, Michelle remembered how much fun those times were and bought a lot of new hiking gear.","Michelle","hikes",3,"year",8407,"agree-key","enabling"
5,"hobby","truthJudge","played tennis","male",NA,"","Fred","plays tennis",3,"year",3301,"disagree-key","baseline"
5,"employment","truthJudge","stole a car","male",NA,"Yesterday, Josh got caught and went through a radical transformation, vowing to never break the law again.","Josh","steals cars",3,"5 years",7920,"agree-key","preventative"
5,"food","truthJudge","did cocaine","female",NA,"","Jackie","does cocaine",3,"year",3587,"agree-key","baseline"
5,"food","truthJudge","smoked cigarettes","male",NA,"","Ronald","smokes cigarettes",3,"month",3301,"agree-key","baseline"
5,"employment","truthJudge","wrote a novel","male",NA,"Yesterday, David became fed up with the literary world and decided to never write anything again.","David","writes novels",3,"5 years",4391,"agree-key","preventative"
5,"hobby","truthJudge","climbed mountains","female",NA,"Yesterday, Kathleen turned 80 and gave up all strenuous physical exercise because her doctor said it would be deadly.","Kathleen","climbs mountains",3,"5 years",8100,"disagree-key","preventative"
5,"employment","truthJudge","wrote a poem","male",NA,"Yesterday, Brian finished an MFA program and quit his other job to focus on writing poems.","Brian","writes poems",3,"year",6432,"agree-key","enabling"
5,"employment","truthJudge","stole chewing gum","male",NA,"Yesterday, Lewis got caught and vowed to never break the law again.","Lewis","steals chewing gum",3,"5 years",4039,"disagree-key","preventative"
5,"food","truthJudge","smoked marijuana","male",NA,"Yesterday, Jack realized he is severely allergic to marijuana and will no longer smoke it.","Jack","smokes marijuana",3,"year",5757,"disagree-key","preventative"
5,"food","truthJudge","ate caviar","female",NA,"Yesterday, Stephanie developed a seafood allergy.","Stephanie","eats caviar",3,"5 years",5265,"disagree-key","preventative"
5,"employment","truthJudge","volunteered for a soup kitchen","female",NA,"Yesterday, Natalie researched a new soup kitchen in the area and is going to volunteer with them.","Natalie","volunteers for soup kitchens",3,"5 years",4653,"disagree-key","enabling"
5,"entertainment","truthJudge","watched space launches","female",NA,"Yesterday, Jessica went through a radical transformation and now it is against her belief to witness anything relating to space travel.","Jessica","watches space launches",3,"2 years",4285,"agree-key","preventative"
5,"food","truthJudge","drank coffee","male",NA,"Yesterday, Christopher wanted a morning jolt and bought a pound of fresh roasted coffee.","Christopher","drinks coffee",3,"month",4073,"agree-key","enabling"
5,"hobby","truthJudge","played the banjo","male",NA,"Yesterday, Derrick remembered how much fun that was and joined his friend&quotechars band as the banjoist.","Derrick","plays the banjo",3,"year",4394,"agree-key","enabling"
5,"employment","truthJudge","volunteered for a political campaign","female",NA,"Yesterday, Linda researched a new political candidate in the area and is going to volunteer with them.","Linda","volunteers for political campaigns",3,"5 years",10299,"agree-key","enabling"
5,"food","truthJudge","drank beer","male",NA,"Yesterday, Daniel wanted to get tipsy and bought a six-pack of beer.","Daniel","drinks beer",3,"month",3633,"agree-key","enabling"
5,"food","truthJudge","ate peanut butter","female",NA,"","Ashley","eats peanut butter",3,"year",4747,"agree-key","baseline"
5,"hobby","truthJudge","ran","male",NA,"","Michael","runs",3,"2 months",3178,"agree-key","baseline"
5,"clothing","truthJudge","wore a suit","female",NA,"","Elizabeth","wears a suit",3,"month",2857,"agree-key","baseline"
6,"employment","truthJudge","wrote a novel","female",NA,"Yesterday, Ashley finished an MFA program and quit her other job to focus on writing novels.","Ashley","writes novels",3,"5 years",6398,"agree-key","enabling"
6,"employment","truthJudge","volunteered for a soup kitchen","male",NA,"","Michael","volunteers for soup kitchens",3,"5 years",4268,"disagree-key","baseline"
6,"hobby","truthJudge","hiked","male",NA,"Yesterday, Stephen was in a motorcycle accident and will never walk again.","Stephen","hikes",3,"year",5362,"disagree-key","preventative"
6,"food","truthJudge","drank coffee","female",NA,"","Janet","drinks coffee",3,"month",2575,"agree-key","baseline"
6,"hobby","truthJudge","played the banjo","male",NA,"Yesterday, David remembered how much fun that was and joined his friend&quotechars band as the banjoist.","David","plays the banjo",3,"year",4830,"agree-key","enabling"
6,"food","truthJudge","smoked cigarettes","female",NA,"","Natalie","smokes cigarettes",3,"month",7910,"disagree-key","baseline"
6,"entertainment","truthJudge","watched professional football","female",NA,"Yesterday, Claire remembered how much enjoyable that was and upgraded her cable to have access to all professional football games.","Claire","watches professional football",3,"year",5028,"agree-key","enabling"
6,"entertainment","truthJudge","watched space launches","male",NA,"Yesterday, William remembered how much enjoyable that was and researched all of the space launches in the next year within driving distance.","William","watches space launches",3,"2 years",4286,"agree-key","enabling"
6,"food","truthJudge","did cocaine","male",NA,"Yesterday, Gabriel realized he is severely allergic to cocaine and will no longer do it.","Gabriel","does cocaine",3,"year",4754,"disagree-key","preventative"
6,"hobby","truthJudge","played tennis","female",NA,"Yesterday, Jessica developed crippling arthritis in both elbows and can only move her arms extremely slowly.","Jessica","plays tennis",3,"year",2583,"disagree-key","preventative"
6,"hobby","truthJudge","ran","female",NA,"Yesterday, Nicole was in a car accident and became permanently paralyzed from the waist down.","Nicole","runs",3,"2 months",2886,"disagree-key","preventative"
6,"food","truthJudge","ate caviar","female",NA,"Yesterday, Brooke learned about the dietary benefits of eating caviar and bought a jar at the supermaket.","Brooke","eats caviar",3,"5 years",6773,"agree-key","enabling"
6,"hobby","truthJudge","climbed mountains","male",NA,"Yesterday, Vince remembered how much fun that was bought a lot of new mountain climbing gear.","Vince","climbs mountains",3,"5 years",4463,"agree-key","enabling"
6,"clothing","truthJudge","wore a suit","male",NA,"","Ronald","wears a suit",3,"month",2093,"agree-key","baseline"
6,"employment","truthJudge","volunteered for a political campaign","male",NA,"Yesterday, Fred grew disillusioned with the political system and wants nothing to do with it anymore.","Fred","volunteers for political campaigns",3,"5 years",5735,"disagree-key","preventative"
6,"employment","truthJudge","wrote a poem","male",NA,"","Eric","writes poems",3,"year",2332,"disagree-key","baseline"
6,"food","truthJudge","ate peanut butter","female",NA,"","Stephanie","eats peanut butter",3,"year",3135,"disagree-key","baseline"
6,"food","truthJudge","drank beer","male",NA,"Yesterday, Jacob gave up alcohol and entered into Alcoholics Anonymous.","Jacob","drinks beer",3,"month",2260,"disagree-key","preventative"
6,"employment","truthJudge","stole chewing gum","female",NA,"","Hillary","steals chewing gum",3,"5 years",4217,"disagree-key","baseline"
6,"employment","truthJudge","stole a car","male",NA,"Yesterday, Daniel got caught and went through a radical transformation, vowing to never break the law again.","Daniel","steals cars",3,"5 years",3993,"agree-key","preventative"
6,"food","truthJudge","smoked marijuana","male",NA,"Yesterday, Lucas wanted to get high and bought some marijuana.","Lucas","smokes marijuana",3,"year",2085,"agree-key","enabling"
7,"food","truthJudge","drank coffee","male",NA,"Yesterday, Anthony developed a caffeine allergy and decided to give up all caffeine.","Anthony","drinks coffee",3,"month",10000,"agree-key","preventative"
7,"employment","truthJudge","volunteered for a political campaign","male",NA,"Yesterday, Josh grew disillusioned with the political system and wants nothing to do with it anymore.","Josh","volunteers for political campaigns",3,"5 years",3933,"agree-key","preventative"
7,"employment","truthJudge","volunteered for a soup kitchen","male",NA,"","Greg","volunteers for soup kitchens",3,"5 years",5661,"agree-key","baseline"
7,"clothing","truthJudge","wore a suit","male",NA,"","Fred","wears a suit",3,"month",2734,"agree-key","baseline"
7,"hobby","truthJudge","ran","female",NA,"Yesterday, Tina remembered how much fun those times were and bought a new pair of running shoes.","Tina","runs",3,"2 months",2792,"agree-key","enabling"
7,"employment","truthJudge","wrote a poem","female",NA,"Yesterday, Stephanie became fed up with the poetry world and decided to never write poems again.","Stephanie","writes poems",3,"year",10595,"agree-key","preventative"
7,"hobby","truthJudge","hiked","female",NA,"Yesterday, Theresa remembered how much fun those times were and bought a lot of new hiking gear.","Theresa","hikes",3,"year",4816,"agree-key","enabling"
7,"food","truthJudge","ate peanut butter","male",NA,"","Ted","eats peanut butter",3,"year",4002,"agree-key","baseline"
7,"employment","truthJudge","wrote a novel","male",NA,"Yesterday, Ben finished an MFA program and quit his other job to focus on writing novels.","Ben","writes novels",3,"5 years",5895,"agree-key","enabling"
7,"employment","truthJudge","stole chewing gum","male",NA,"Yesterday, Stephen got caught and vowed to never break the law again.","Stephen","steals chewing gum",3,"5 years",5085,"agree-key","preventative"
7,"food","truthJudge","drank beer","male",NA,"Yesterday, Jacob wanted to get tipsy and bought a six-pack of beer.","Jacob","drinks beer",3,"month",4517,"agree-key","enabling"
7,"entertainment","truthJudge","watched professional football","female",NA,"Yesterday, Shannon learned about all the corruption in professional sports and no longer can watch it.","Shannon","watches professional football",3,"year",2648,"agree-key","preventative"
7,"hobby","truthJudge","climbed mountains","male",NA,"Yesterday, Martin remembered how much fun that was bought a lot of new mountain climbing gear.","Martin","climbs mountains",3,"5 years",3108,"agree-key","enabling"
7,"hobby","truthJudge","played the banjo","female",NA,"Yesterday, Ashley developed crippling arthritis in her hands and no longer can play musical instruments.","Ashley","plays the banjo",3,"year",2708,"agree-key","preventative"
7,"employment","truthJudge","stole a car","female",NA,"Yesterday, Brooke learned a new technique for breaking into cars.","Brooke","steals cars",3,"5 years",2612,"agree-key","enabling"
7,"food","truthJudge","smoked cigarettes","male",NA,"","William","smokes cigarettes",3,"month",2699,"agree-key","baseline"
7,"entertainment","truthJudge","watched space launches","female",NA,"Yesterday, Elizabeth remembered how much enjoyable that was and researched all of the space launches in the next year within driving distance.","Elizabeth","watches space launches",3,"2 years",3336,"agree-key","enabling"
7,"food","truthJudge","did cocaine","male",NA,"Yesterday, Cameron realized he is severely allergic to cocaine and will no longer do it.","Cameron","does cocaine",3,"year",2926,"agree-key","preventative"
7,"food","truthJudge","smoked marijuana","male",NA,"","David","smokes marijuana",3,"year",1678,"agree-key","baseline"
7,"food","truthJudge","ate caviar","female",NA,"","Michelle","eats caviar",3,"5 years",1593,"agree-key","baseline"
7,"hobby","truthJudge","played tennis","female",NA,"","Monica","plays tennis",3,"year",1259,"agree-key","baseline"
8,"food","truthJudge","drank beer","male",NA,"Yesterday, Jacob gave up alcohol and entered into Alcoholics Anonymous.","Jacob","drinks beer",3,"month",8311,"agree-key","preventative"
8,"hobby","truthJudge","played the banjo","male",NA,"Yesterday, Jack developed crippling arthritis in his hands and no longer can play musical instruments.","Jack","plays the banjo",3,"year",7746,"disagree-key","preventative"
8,"hobby","truthJudge","climbed mountains","female",NA,"","Hillary","climbs mountains",3,"5 years",4037,"agree-key","baseline"
8,"food","truthJudge","ate peanut butter","male",NA,"","Robert","eats peanut butter",3,"year",2989,"disagree-key","baseline"
8,"employment","truthJudge","volunteered for a political campaign","female",NA,"Yesterday, Linda researched a new political candidate in the area and is going to volunteer with them.","Linda","volunteers for political campaigns",3,"5 years",5366,"agree-key","enabling"
8,"food","truthJudge","smoked cigarettes","male",NA,"Yesterday, Ben wanted a smoke and bought a pack of cigarettes.","Ben","smokes cigarettes",3,"month",4269,"agree-key","enabling"
8,"entertainment","truthJudge","watched professional football","female",NA,"Yesterday, Brooke remembered how much enjoyable that was and upgraded her cable to have access to all professional football games.","Brooke","watches professional football",3,"year",5661,"agree-key","enabling"
8,"entertainment","truthJudge","watched space launches","male",NA,"","Gabriel","watches space launches",3,"2 years",7901,"agree-key","baseline"
8,"food","truthJudge","did cocaine","female",NA,"Yesterday, Veronica wanted to get high and bought some cocaine.","Veronica","does cocaine",3,"year",3082,"agree-key","enabling"
8,"hobby","truthJudge","ran","male",NA,"Yesterday, Daniel was in a car accident and became permanently paralyzed from the waist down.","Daniel","runs",3,"2 months",3365,"disagree-key","preventative"
8,"food","truthJudge","drank coffee","male",NA,"","Tom","drinks coffee",3,"month",2392,"disagree-key","baseline"
8,"employment","truthJudge","volunteered for a soup kitchen","female",NA,"Yesterday, Kristina researched a new soup kitchen in the area and is going to volunteer with them.","Kristina","volunteers for soup kitchens",3,"5 years",4319,"agree-key","enabling"
8,"employment","truthJudge","stole chewing gum","male",NA,"Yesterday, Greg learned a new trick to distract shopkeepers.","Greg","steals chewing gum",3,"5 years",5309,"agree-key","enabling"
8,"clothing","truthJudge","wore a suit","female",NA,"Yesterday, Elisa got fired from her job on Wall Street and now works in a pizza parlor.","Elisa","wears a suit",3,"month",3453,"disagree-key","preventative"
8,"employment","truthJudge","wrote a poem","male",NA,"Yesterday, Scott finished an MFA program and quit his other job to focus on writing poems.","Scott","writes poems",3,"year",3614,"agree-key","enabling"
8,"food","truthJudge","smoked marijuana","female",NA,"","Esther","smokes marijuana",3,"year",3439,"agree-key","baseline"
8,"employment","truthJudge","stole a car","female",NA,"","Shannon","steals cars",3,"5 years",1557,"agree-key","baseline"
8,"employment","truthJudge","wrote a novel","male",NA,"","Lewis","writes novels",3,"5 years",3062,"agree-key","baseline"
8,"food","truthJudge","ate caviar","female",NA,"Yesterday, Monica developed a seafood allergy.","Monica","eats caviar",3,"5 years",3637,"disagree-key","preventative"
8,"hobby","truthJudge","played tennis","male",NA,"Yesterday, Tim developed crippling arthritis in both elbows and can only move his arms extremely slowly.","Tim","plays tennis",3,"year",3373,"disagree-key","preventative"
8,"hobby","truthJudge","hiked","female",NA,"Yesterday, Kim was in a motorcycle accident and will never walk again.","Kim","hikes",3,"year",2997,"disagree-key","preventative"
9,"employment","truthJudge","wrote a poem","female",NA,"Yesterday, Nicole became fed up with the poetry world and decided to never write poems again.","Nicole","writes poems",3,"year",5743,"agree-key","preventative"
9,"food","truthJudge","drank beer","female",NA,"Yesterday, Maya gave up alcohol and entered into Alcoholics Anonymous.","Maya","drinks beer",3,"month",7009,"agree-key","preventative"
9,"clothing","truthJudge","wore a suit","male",NA,"Yesterday, Robert got a high paying job on Wall Street.","Robert","wears a suit",3,"month",3820,"agree-key","enabling"
9,"employment","truthJudge","volunteered for a soup kitchen","male",NA,"Yesterday, William researched a new soup kitchen in the area and is going to volunteer with them.","William","volunteers for soup kitchens",3,"5 years",4198,"agree-key","enabling"
9,"entertainment","truthJudge","watched space launches","female",NA,"","Veronica","watches space launches",3,"2 years",3293,"agree-key","baseline"
9,"hobby","truthJudge","played tennis","female",NA,"Yesterday, Laura developed crippling arthritis in both elbows and can only move her arms extremely slowly.","Laura","plays tennis",3,"year",6470,"disagree-key","preventative"
9,"entertainment","truthJudge","watched professional football","female",NA,"Yesterday, Elizabeth remembered how much enjoyable that was and upgraded her cable to have access to all professional football games.","Elizabeth","watches professional football",3,"year",5638,"agree-key","enabling"
9,"hobby","truthJudge","ran","male",NA,"Yesterday, Seth was in a car accident and became permanently paralyzed from the waist down.","Seth","runs",3,"2 months",4350,"disagree-key","preventative"
9,"employment","truthJudge","stole chewing gum","female",NA,"Yesterday, Michelle got caught and vowed to never break the law again.","Michelle","steals chewing gum",3,"5 years",6133,"disagree-key","preventative"
9,"hobby","truthJudge","played the banjo","female",NA,"Yesterday, Melinda remembered how much fun that was and joined her friend&quotechars band as the banjoist.","Melinda","plays the banjo",3,"year",6342,"agree-key","enabling"
9,"hobby","truthJudge","hiked","female",NA,"Yesterday, Shannon remembered how much fun those times were and bought a lot of new hiking gear.","Shannon","hikes",3,"year",3806,"agree-key","enabling"
9,"food","truthJudge","ate caviar","female",NA,"Yesterday, Jessica learned about the dietary benefits of eating caviar and bought a jar at the supermaket.","Jessica","eats caviar",3,"5 years",3382,"agree-key","enabling"
9,"food","truthJudge","smoked marijuana","male",NA,"","George","smokes marijuana",3,"year",3410,"agree-key","baseline"
9,"food","truthJudge","smoked cigarettes","male",NA,"","Jack","smokes cigarettes",3,"month",2369,"agree-key","baseline"
9,"food","truthJudge","drank coffee","female",NA,"Yesterday, Ashley wanted a morning jolt and bought a pound of fresh roasted coffee.","Ashley","drinks coffee",3,"month",2902,"agree-key","enabling"
9,"food","truthJudge","ate peanut butter","male",NA,"Yesterday, Kyle developed a peanut allergy.","Kyle","eats peanut butter",3,"year",4268,"disagree-key","preventative"
9,"food","truthJudge","did cocaine","female",NA,"","Kristina","does cocaine",3,"year",2662,"agree-key","baseline"
9,"employment","truthJudge","volunteered for a political campaign","female",NA,"","Julia","volunteers for political campaigns",3,"5 years",4110,"agree-key","baseline"
9,"employment","truthJudge","stole a car","male",NA,"Yesterday, John got caught and went through a radical transformation, vowing to never break the law again.","John","steals cars",3,"5 years",4572,"disagree-key","preventative"
9,"employment","truthJudge","wrote a novel","female",NA,"","Angela","writes novels",3,"5 years",2669,"agree-key","baseline"
9,"hobby","truthJudge","climbed mountains","male",NA,"","Cameron","climbs mountains",3,"5 years",1814,"agree-key","baseline"
10,"food","truthJudge","drank beer","male",NA,"Yesterday, Josh gave up alcohol and entered into Alcoholics Anonymous.","Josh","drinks beer",3,"month",5976,"disagree-key","preventative"
10,"food","truthJudge","smoked marijuana","male",NA,"","William","smokes marijuana",3,"year",4431,"disagree-key","baseline"
10,"hobby","truthJudge","played tennis","female",NA,"Yesterday, Rebecca remembered how much fun that was and bought a new tennis racket.","Rebecca","plays tennis",3,"year",5242,"agree-key","enabling"
10,"hobby","truthJudge","hiked","male",NA,"Yesterday, Michael was in a motorcycle accident and will never walk again.","Michael","hikes",3,"year",3843,"disagree-key","preventative"
10,"employment","truthJudge","volunteered for a political campaign","male",NA,"Yesterday, Tom researched a new political candidate in the area and is going to volunteer with them.","Tom","volunteers for political campaigns",3,"5 years",6418,"agree-key","enabling"
10,"food","truthJudge","ate peanut butter","female",NA,"Yesterday, Jessica learned about the dietary benefits of eating peanut butter and bought a jar at the supermaket.","Jessica","eats peanut butter",3,"year",4518,"agree-key","enabling"
10,"food","truthJudge","did cocaine","male",NA,"","Lucas","does cocaine",3,"year",3227,"agree-key","baseline"
10,"hobby","truthJudge","climbed mountains","female",NA,"","Laura","climbs mountains",3,"5 years",2934,"agree-key","baseline"
10,"food","truthJudge","ate caviar","female",NA,"","Stephanie","eats caviar",3,"5 years",2893,"agree-key","baseline"
10,"employment","truthJudge","stole chewing gum","male",NA,"Yesterday, Ronald learned a new trick to distract shopkeepers.","Ronald","steals chewing gum",3,"5 years",4200,"agree-key","enabling"
10,"clothing","truthJudge","wore a suit","male",NA,"Yesterday, Alexander got fired from his job on Wall Street and now works in a pizza parlor.","Alexander","wears a suit",3,"month",4393,"agree-key","preventative"
10,"hobby","truthJudge","played the banjo","male",NA,"Yesterday, George developed crippling arthritis in his hands and no longer can play musical instruments.","George","plays the banjo",3,"year",4072,"agree-key","preventative"
10,"employment","truthJudge","volunteered for a soup kitchen","female",NA,"","Maya","volunteers for soup kitchens",3,"5 years",5744,"agree-key","baseline"
10,"employment","truthJudge","stole a car","male",NA,"Yesterday, Stephen learned a new technique for breaking into cars.","Stephen","steals cars",3,"5 years",2469,"agree-key","enabling"
10,"hobby","truthJudge","ran","male",NA,"Yesterday, Brian was in a car accident and became permanently paralyzed from the waist down.","Brian","runs",3,"2 months",3365,"disagree-key","preventative"
10,"entertainment","truthJudge","watched space launches","male",NA,"Yesterday, Christopher remembered how much enjoyable that was and researched all of the space launches in the next year within driving distance.","Christopher","watches space launches",3,"2 years",6399,"agree-key","enabling"
10,"food","truthJudge","smoked cigarettes","female",NA,"","Theresa","smokes cigarettes",3,"month",2803,"agree-key","baseline"
10,"food","truthJudge","drank coffee","female",NA,"Yesterday, Elizabeth wanted a morning jolt and bought a pound of fresh roasted coffee.","Elizabeth","drinks coffee",3,"month",1957,"agree-key","enabling"
10,"employment","truthJudge","wrote a poem","female",NA,"Yesterday, Esther became fed up with the poetry world and decided to never write poems again.","Esther","writes poems",3,"year",2046,"agree-key","preventative"
10,"employment","truthJudge","wrote a novel","male",NA,"Yesterday, Scott became fed up with the literary world and decided to never write anything again.","Scott","writes novels",3,"5 years",1979,"agree-key","preventative"
10,"entertainment","truthJudge","watched professional football","male",NA,"","Lewis","watches professional football",3,"year",5432,"agree-key","baseline"
11,"employment","truthJudge","stole a car","female",NA,"","Esther","steals cars",3,"5 years",4174,"agree-key","baseline"
11,"food","truthJudge","ate caviar","female",NA,"Yesterday, Maya learned about the dietary benefits of eating caviar and bought a jar at the supermaket.","Maya","eats caviar",3,"5 years",7633,"agree-key","enabling"
11,"employment","truthJudge","stole chewing gum","male",NA,"Yesterday, Anthony learned a new trick to distract shopkeepers.","Anthony","steals chewing gum",3,"5 years",7977,"agree-key","enabling"
11,"hobby","truthJudge","played tennis","male",NA,"","Greg","plays tennis",3,"year",4605,"agree-key","baseline"
11,"employment","truthJudge","volunteered for a political campaign","male",NA,"Yesterday, Gabriel researched a new political candidate in the area and is going to volunteer with them.","Gabriel","volunteers for political campaigns",3,"5 years",9552,"agree-key","enabling"
11,"food","truthJudge","did cocaine","male",NA,"Yesterday, Seth realized he is severely allergic to cocaine and will no longer do it.","Seth","does cocaine",3,"year",3577,"disagree-key","preventative"
11,"hobby","truthJudge","played the banjo","male",NA,"Yesterday, Lewis developed crippling arthritis in his hands and no longer can play musical instruments.","Lewis","plays the banjo",3,"year",4218,"disagree-key","preventative"
11,"food","truthJudge","drank coffee","male",NA,"Yesterday, Scott developed a caffeine allergy and decided to give up all caffeine.","Scott","drinks coffee",3,"month",3977,"disagree-key","preventative"
11,"hobby","truthJudge","ran","female",NA,"Yesterday, Linda remembered how much fun those times were and bought a new pair of running shoes.","Linda","runs",3,"2 months",7707,"agree-key","enabling"
11,"hobby","truthJudge","climbed mountains","male",NA,"Yesterday, Jack remembered how much fun that was bought a lot of new mountain climbing gear.","Jack","climbs mountains",3,"5 years",6146,"agree-key","enabling"
11,"food","truthJudge","smoked cigarettes","female",NA,"Yesterday, Elizabeth wanted a smoke and bought a pack of cigarettes.","Elizabeth","smokes cigarettes",3,"month",10554,"agree-key","enabling"
11,"food","truthJudge","drank beer","female",NA,"Yesterday, Ashley gave up alcohol and entered into Alcoholics Anonymous.","Ashley","drinks beer",3,"month",3122,"disagree-key","preventative"
11,"hobby","truthJudge","hiked","male",NA,"Yesterday, Christopher was in a motorcycle accident and will never walk again.","Christopher","hikes",3,"year",3561,"disagree-key","preventative"
11,"clothing","truthJudge","wore a suit","male",NA,"","Brian","wears a suit",3,"month",5179,"disagree-key","baseline"
11,"employment","truthJudge","wrote a poem","male",NA,"","Lucas","writes poems",3,"year",5401,"disagree-key","baseline"
11,"entertainment","truthJudge","watched professional football","female",NA,"","Jessica","watches professional football",3,"year",6704,"agree-key","baseline"
11,"entertainment","truthJudge","watched space launches","female",NA,"Yesterday, Natalie went through a radical transformation and now it is against her belief to witness anything relating to space travel.","Natalie","watches space launches",3,"2 years",7970,"disagree-key","preventative"
11,"food","truthJudge","smoked marijuana","female",NA,"","Rebecca","smokes marijuana",3,"year",4442,"disagree-key","baseline"
11,"employment","truthJudge","wrote a novel","female",NA,"Yesterday, Crystal became fed up with the literary world and decided to never write anything again.","Crystal","writes novels",3,"5 years",5090,"disagree-key","preventative"
11,"food","truthJudge","ate peanut butter","male",NA,"","John","eats peanut butter",3,"year",2810,"agree-key","baseline"
11,"employment","truthJudge","volunteered for a soup kitchen","male",NA,"Yesterday, Tom researched a new soup kitchen in the area and is going to volunteer with them.","Tom","volunteers for soup kitchens",3,"5 years",12874,"agree-key","enabling"
12,"hobby","truthJudge","hiked","male",NA,"","Vince","hikes",3,"year",5214,"agree-key","baseline"
12,"food","truthJudge","ate peanut butter","female",NA,"Yesterday, Crystal learned about the dietary benefits of eating peanut butter and bought a jar at the supermaket.","Crystal","eats peanut butter",3,"year",4387,"disagree-key","enabling"
12,"clothing","truthJudge","wore a suit","male",NA,"Yesterday, John got a high paying job on Wall Street.","John","wears a suit",3,"month",1573,"agree-key","enabling"
12,"food","truthJudge","drank beer","female",NA,"Yesterday, Hillary wanted to get tipsy and bought a six-pack of beer.","Hillary","drinks beer",3,"month",1909,"disagree-key","enabling"
12,"employment","truthJudge","volunteered for a soup kitchen","male",NA,"","Jack","volunteers for soup kitchens",3,"5 years",3030,"disagree-key","baseline"
12,"employment","truthJudge","stole chewing gum","male",NA,"","George","steals chewing gum",3,"5 years",1590,"disagree-key","baseline"
12,"hobby","truthJudge","climbed mountains","male",NA,"","Robert","climbs mountains",3,"5 years",1157,"agree-key","baseline"
12,"employment","truthJudge","volunteered for a political campaign","male",NA,"Yesterday, Stephen grew disillusioned with the political system and wants nothing to do with it anymore.","Stephen","volunteers for political campaigns",3,"5 years",3285,"agree-key","preventative"
12,"entertainment","truthJudge","watched space launches","female",NA,"","Michelle","watches space launches",3,"2 years",3621,"agree-key","baseline"
12,"hobby","truthJudge","ran","male",NA,"","Cameron","runs",3,"2 months",1285,"disagree-key","baseline"
12,"employment","truthJudge","wrote a poem","female",NA,"Yesterday, Nicole finished an MFA program and quit her other job to focus on writing poems.","Nicole","writes poems",3,"year",1189,"disagree-key","enabling"
12,"food","truthJudge","smoked marijuana","female",NA,"Yesterday, Jennifer realized she is severely allergic to marijuana and will no longer smoke it.","Jennifer","smokes marijuana",3,"year",1204,"disagree-key","preventative"
12,"employment","truthJudge","wrote a novel","male",NA,"Yesterday, Fred finished an MFA program and quit his other job to focus on writing novels.","Fred","writes novels",3,"5 years",1813,"agree-key","enabling"
12,"food","truthJudge","did cocaine","male",NA,"","Anthony","does cocaine",3,"year",1333,"agree-key","baseline"
12,"food","truthJudge","ate caviar","female",NA,"Yesterday, Jackie learned about the dietary benefits of eating caviar and bought a jar at the supermaket.","Jackie","eats caviar",3,"5 years",2485,"disagree-key","enabling"
12,"food","truthJudge","drank coffee","male",NA,"Yesterday, Scott developed a caffeine allergy and decided to give up all caffeine.","Scott","drinks coffee",3,"month",789,"disagree-key","preventative"
12,"hobby","truthJudge","played tennis","female",NA,"Yesterday, Esther remembered how much fun that was and bought a new tennis racket.","Esther","plays tennis",3,"year",949,"disagree-key","enabling"
12,"entertainment","truthJudge","watched professional football","male",NA,"Yesterday, Tim learned about all the corruption in professional sports and no longer can watch it.","Tim","watches professional football",3,"year",1510,"disagree-key","preventative"
12,"hobby","truthJudge","played the banjo","female",NA,"Yesterday, Tina developed crippling arthritis in her hands and no longer can play musical instruments.","Tina","plays the banjo",3,"year",1206,"disagree-key","preventative"
12,"food","truthJudge","smoked cigarettes","female",NA,"Yesterday, Laura quit smoking cigarettes.","Laura","smokes cigarettes",3,"month",966,"disagree-key","preventative"
12,"employment","truthJudge","stole a car","male",NA,"Yesterday, Kyle got caught and went through a radical transformation, vowing to never break the law again.","Kyle","steals cars",3,"5 years",902,"agree-key","preventative"
13,"food","truthJudge","drank beer","female",NA,"Yesterday, Linda wanted to get tipsy and bought a six-pack of beer.","Linda","drinks beer",3,"month",8043,"agree-key","enabling"
13,"employment","truthJudge","volunteered for a soup kitchen","male",NA,"Yesterday, Brian researched a new soup kitchen in the area and is going to volunteer with them.","Brian","volunteers for soup kitchens",3,"5 years",9587,"agree-key","enabling"
13,"employment","truthJudge","volunteered for a political campaign","male",NA,"Yesterday, Jack grew disillusioned with the political system and wants nothing to do with it anymore.","Jack","volunteers for political campaigns",3,"5 years",9567,"agree-key","preventative"
13,"food","truthJudge","did cocaine","female",NA,"Yesterday, Elizabeth realized she is severely allergic to cocaine and will no longer do it.","Elizabeth","does cocaine",3,"year",8790,"agree-key","preventative"
13,"entertainment","truthJudge","watched professional football","female",NA,"Yesterday, Theresa learned about all the corruption in professional sports and no longer can watch it.","Theresa","watches professional football",3,"year",11614,"agree-key","preventative"
13,"employment","truthJudge","wrote a poem","male",NA,"Yesterday, Doug finished an MFA program and quit his other job to focus on writing poems.","Doug","writes poems",3,"year",5988,"agree-key","enabling"
13,"hobby","truthJudge","played tennis","male",NA,"Yesterday, Seth remembered how much fun that was and bought a new tennis racket.","Seth","plays tennis",3,"year",6653,"agree-key","enabling"
13,"hobby","truthJudge","played the banjo","male",NA,"Yesterday, Martin developed crippling arthritis in his hands and no longer can play musical instruments.","Martin","plays the banjo",3,"year",8896,"disagree-key","preventative"
13,"employment","truthJudge","stole chewing gum","male",NA,"","Cameron","steals chewing gum",3,"5 years",7664,"agree-key","baseline"
13,"hobby","truthJudge","hiked","male",NA,"Yesterday, Ronald remembered how much fun those times were and bought a lot of new hiking gear.","Ronald","hikes",3,"year",7362,"agree-key","enabling"
13,"food","truthJudge","ate caviar","female",NA,"Yesterday, Janet learned about the dietary benefits of eating caviar and bought a jar at the supermaket.","Janet","eats caviar",3,"5 years",6731,"agree-key","enabling"
13,"food","truthJudge","ate peanut butter","female",NA,"","Julia","eats peanut butter",3,"year",4132,"agree-key","baseline"
13,"employment","truthJudge","wrote a novel","female",NA,"Yesterday, Natalie became fed up with the literary world and decided to never write anything again.","Natalie","writes novels",3,"5 years",6956,"agree-key","preventative"
13,"hobby","truthJudge","ran","male",NA,"","Tom","runs",3,"2 months",3209,"agree-key","baseline"
13,"food","truthJudge","smoked cigarettes","female",NA,"","Jackie","smokes cigarettes",3,"month",5257,"agree-key","baseline"
13,"food","truthJudge","smoked marijuana","male",NA,"","Scott","smokes marijuana",3,"year",2490,"agree-key","baseline"
13,"food","truthJudge","drank coffee","male",NA,"Yesterday, Daniel developed a caffeine allergy and decided to give up all caffeine.","Daniel","drinks coffee",3,"month",7779,"agree-key","preventative"
13,"clothing","truthJudge","wore a suit","male",NA,"Yesterday, George got fired from his job on Wall Street and now works in a pizza parlor.","George","wears a suit",3,"month",7305,"agree-key","preventative"
13,"entertainment","truthJudge","watched space launches","male",NA,"Yesterday, Derrick remembered how much enjoyable that was and researched all of the space launches in the next year within driving distance.","Derrick","watches space launches",3,"2 years",9465,"agree-key","enabling"
13,"hobby","truthJudge","climbed mountains","male",NA,"","Greg","climbs mountains",3,"5 years",5001,"agree-key","baseline"
13,"employment","truthJudge","stole a car","female",NA,"","Kim","steals cars",3,"5 years",2085,"agree-key","baseline"
14,"employment","truthJudge","volunteered for a soup kitchen","female",NA,"Yesterday, Michelle researched a new soup kitchen in the area and is going to volunteer with them.","Michelle","volunteers for soup kitchens",3,"5 years",4819,"agree-key","enabling"
14,"entertainment","truthJudge","watched space launches","female",NA,"Yesterday, Monica went through a radical transformation and now it is against her belief to witness anything relating to space travel.","Monica","watches space launches",3,"2 years",3677,"agree-key","preventative"
14,"food","truthJudge","did cocaine","male",NA,"Yesterday, Vince realized he is severely allergic to cocaine and will no longer do it.","Vince","does cocaine",3,"year",2891,"disagree-key","preventative"
14,"entertainment","truthJudge","watched professional football","male",NA,"","Lucas","watches professional football",3,"year",2693,"disagree-key","baseline"
14,"hobby","truthJudge","played the banjo","male",NA,"Yesterday, Scott remembered how much fun that was and joined his friend&quotechars band as the banjoist.","Scott","plays the banjo",3,"year",1892,"disagree-key","enabling"
14,"employment","truthJudge","stole a car","male",NA,"Yesterday, Lewis got caught and went through a radical transformation, vowing to never break the law again.","Lewis","steals cars",3,"5 years",1912,"agree-key","preventative"
14,"food","truthJudge","drank coffee","female",NA,"","Claire","drinks coffee",3,"month",2436,"disagree-key","baseline"
14,"food","truthJudge","ate caviar","male",NA,"Yesterday, Doug developed a seafood allergy.","Doug","eats caviar",3,"5 years",1654,"disagree-key","preventative"
14,"food","truthJudge","ate peanut butter","female",NA,"Yesterday, Elizabeth learned about the dietary benefits of eating peanut butter and bought a jar at the supermaket.","Elizabeth","eats peanut butter",3,"year",2653,"disagree-key","enabling"
14,"food","truthJudge","drank beer","female",NA,"","Melinda","drinks beer",3,"month",2230,"agree-key","baseline"
14,"employment","truthJudge","stole chewing gum","female",NA,"","Kristina","steals chewing gum",3,"5 years",3302,"agree-key","baseline"
14,"food","truthJudge","smoked cigarettes","female",NA,"","Shannon","smokes cigarettes",3,"month",2210,"disagree-key","baseline"
14,"hobby","truthJudge","ran","female",NA,"Yesterday, Laura remembered how much fun those times were and bought a new pair of running shoes.","Laura","runs",3,"2 months",2088,"disagree-key","enabling"
14,"hobby","truthJudge","climbed mountains","male",NA,"Yesterday, Cameron remembered how much fun that was bought a lot of new mountain climbing gear.","Cameron","climbs mountains",3,"5 years",2162,"agree-key","enabling"
14,"employment","truthJudge","volunteered for a political campaign","male",NA,"","Christopher","volunteers for political campaigns",3,"5 years",1776,"agree-key","baseline"
14,"hobby","truthJudge","hiked","male",NA,"","Robert","hikes",3,"year",2391,"agree-key","baseline"
14,"food","truthJudge","smoked marijuana","female",NA,"Yesterday, Tina wanted to get high and bought some marijuana.","Tina","smokes marijuana",3,"year",1545,"disagree-key","enabling"
14,"clothing","truthJudge","wore a suit","male",NA,"Yesterday, Ben got fired from his job on Wall Street and now works in a pizza parlor.","Ben","wears a suit",3,"month",1839,"agree-key","preventative"
14,"hobby","truthJudge","played tennis","female",NA,"Yesterday, Julia developed crippling arthritis in both elbows and can only move her arms extremely slowly.","Julia","plays tennis",3,"year",1499,"disagree-key","preventative"
14,"employment","truthJudge","wrote a novel","male",NA,"Yesterday, Stephen became fed up with the literary world and decided to never write anything again.","Stephen","writes novels",3,"5 years",1900,"agree-key","preventative"
14,"employment","truthJudge","wrote a poem","male",NA,"Yesterday, Alexander finished an MFA program and quit his other job to focus on writing poems.","Alexander","writes poems",3,"year",2060,"agree-key","enabling"
15,"food","truthJudge","drank coffee","male",NA,"Yesterday, Alexander wanted a morning jolt and bought a pound of fresh roasted coffee.","Alexander","drinks coffee",3,"month",12167,"agree-key","enabling"
15,"clothing","truthJudge","wore a suit","male",NA,"Yesterday, Cameron got a high paying job on Wall Street.","Cameron","wears a suit",3,"month",10083,"agree-key","enabling"
15,"hobby","truthJudge","played the banjo","female",NA,"Yesterday, Jackie developed crippling arthritis in her hands and no longer can play musical instruments.","Jackie","plays the banjo",3,"year",17152,"agree-key","preventative"
15,"employment","truthJudge","wrote a poem","female",NA,"","Amber","writes poems",3,"year",3094,"agree-key","baseline"
15,"hobby","truthJudge","played tennis","female",NA,"","Esther","plays tennis",3,"year",3956,"agree-key","baseline"
15,"employment","truthJudge","volunteered for a soup kitchen","female",NA,"Yesterday, Maya researched a new soup kitchen in the area and is going to volunteer with them.","Maya","volunteers for soup kitchens",3,"5 years",4905,"agree-key","enabling"
15,"food","truthJudge","ate peanut butter","female",NA,"","Sophia","eats peanut butter",3,"year",5032,"agree-key","baseline"
15,"food","truthJudge","did cocaine","male",NA,"Yesterday, Doug realized he is severely allergic to cocaine and will no longer do it.","Doug","does cocaine",3,"year",10594,"disagree-key","preventative"
15,"employment","truthJudge","stole a car","female",NA,"Yesterday, Bridgette learned a new technique for breaking into cars.","Bridgette","steals cars",3,"5 years",8296,"agree-key","enabling"
15,"food","truthJudge","ate caviar","male",NA,"","Tim","eats caviar",3,"5 years",3172,"agree-key","baseline"
15,"employment","truthJudge","wrote a novel","male",NA,"","Ben","writes novels",3,"5 years",2689,"agree-key","baseline"
15,"entertainment","truthJudge","watched professional football","female",NA,"","Tina","watches professional football",3,"year",15092,"agree-key","baseline"
15,"employment","truthJudge","stole chewing gum","male",NA,"Yesterday, Lewis got caught and vowed to never break the law again.","Lewis","steals chewing gum",3,"5 years",7932,"disagree-key","preventative"
15,"employment","truthJudge","volunteered for a political campaign","male",NA,"Yesterday, Daniel grew disillusioned with the political system and wants nothing to do with it anymore.","Daniel","volunteers for political campaigns",3,"5 years",7046,"disagree-key","preventative"
15,"hobby","truthJudge","ran","female",NA,"Yesterday, Shannon was in a car accident and became permanently paralyzed from the waist down.","Shannon","runs",3,"2 months",7686,"disagree-key","preventative"
15,"hobby","truthJudge","climbed mountains","female",NA,"Yesterday, Janet turned 80 and gave up all strenuous physical exercise because her doctor said it would be deadly.","Janet","climbs mountains",3,"5 years",7544,"disagree-key","preventative"
15,"food","truthJudge","smoked cigarettes","male",NA,"Yesterday, Lucas wanted a smoke and bought a pack of cigarettes.","Lucas","smokes cigarettes",3,"month",8534,"agree-key","enabling"
15,"entertainment","truthJudge","watched space launches","male",NA,"Yesterday, George remembered how much enjoyable that was and researched all of the space launches in the next year within driving distance.","George","watches space launches",3,"2 years",8765,"agree-key","enabling"
15,"hobby","truthJudge","hiked","male",NA,"Yesterday, Gabriel remembered how much fun those times were and bought a lot of new hiking gear.","Gabriel","hikes",3,"year",6269,"agree-key","enabling"
15,"food","truthJudge","drank beer","female",NA,"","Brooke","drinks beer",3,"month",4865,"agree-key","baseline"
15,"food","truthJudge","smoked marijuana","female",NA,"Yesterday, Rebecca realized she is severely allergic to marijuana and will no longer smoke it.","Rebecca","smokes marijuana",3,"year",5940,"disagree-key","preventative"
16,"employment","truthJudge","wrote a novel","female",NA,"Yesterday, Jackie became fed up with the literary world and decided to never write anything again.","Jackie","writes novels",3,"5 years",27897,"disagree-key","preventative"
16,"hobby","truthJudge","hiked","female",NA,"","Crystal","hikes",3,"year",3429,"agree-key","baseline"
16,"food","truthJudge","smoked cigarettes","female",NA,"Yesterday, Hillary wanted a smoke and bought a pack of cigarettes.","Hillary","smokes cigarettes",3,"month",5319,"agree-key","enabling"
16,"employment","truthJudge","stole chewing gum","female",NA,"Yesterday, Amber learned a new trick to distract shopkeepers.","Amber","steals chewing gum",3,"5 years",5292,"agree-key","enabling"
16,"entertainment","truthJudge","watched professional football","female",NA,"","Julia","watches professional football",3,"year",4492,"agree-key","baseline"
16,"food","truthJudge","drank beer","male",NA,"","David","drinks beer",3,"month",3284,"agree-key","baseline"
16,"food","truthJudge","ate peanut butter","male",NA,"Yesterday, Tom developed a peanut allergy.","Tom","eats peanut butter",3,"year",16522,"disagree-key","preventative"
16,"food","truthJudge","did cocaine","female",NA,"Yesterday, Stephanie wanted to get high and bought some cocaine.","Stephanie","does cocaine",3,"year",3953,"agree-key","enabling"
16,"employment","truthJudge","volunteered for a soup kitchen","female",NA,"Yesterday, Laura grew disillusioned with the soup kitchen system and wants nothing to do with it anymore.","Laura","volunteers for soup kitchens",3,"5 years",6791,"disagree-key","preventative"
16,"hobby","truthJudge","climbed mountains","female",NA,"","Kristina","climbs mountains",3,"5 years",2910,"agree-key","baseline"
16,"employment","truthJudge","volunteered for a political campaign","male",NA,"Yesterday, William grew disillusioned with the political system and wants nothing to do with it anymore.","William","volunteers for political campaigns",3,"5 years",7285,"disagree-key","preventative"
16,"hobby","truthJudge","played tennis","male",NA,"Yesterday, Lewis remembered how much fun that was and bought a new tennis racket.","Lewis","plays tennis",3,"year",3857,"agree-key","enabling"
16,"employment","truthJudge","stole a car","male",NA,"Yesterday, Gabriel got caught and went through a radical transformation, vowing to never break the law again.","Gabriel","steals cars",3,"5 years",24537,"agree-key","preventative"
16,"employment","truthJudge","wrote a poem","female",NA,"Yesterday, Nicole finished an MFA program and quit her other job to focus on writing poems.","Nicole","writes poems",3,"year",4064,"agree-key","enabling"
16,"hobby","truthJudge","played the banjo","female",NA,"","Jennifer","plays the banjo",3,"year",2044,"agree-key","baseline"
16,"hobby","truthJudge","ran","male",NA,"","Doug","runs",3,"2 months",2954,"agree-key","baseline"
16,"clothing","truthJudge","wore a suit","male",NA,"Yesterday, Lee got a high paying job on Wall Street.","Lee","wears a suit",3,"month",5531,"agree-key","enabling"
16,"food","truthJudge","ate caviar","male",NA,"Yesterday, Alexander learned about the dietary benefits of eating caviar and bought a jar at the supermaket.","Alexander","eats caviar",3,"5 years",4964,"agree-key","enabling"
16,"entertainment","truthJudge","watched space launches","female",NA,"Yesterday, Kelly went through a radical transformation and now it is against her belief to witness anything relating to space travel.","Kelly","watches space launches",3,"2 years",7892,"disagree-key","preventative"
16,"food","truthJudge","drank coffee","female",NA,"Yesterday, Claire developed a caffeine allergy and decided to give up all caffeine.","Claire","drinks coffee",3,"month",5164,"disagree-key","preventative"
16,"food","truthJudge","smoked marijuana","female",NA,"","Jessica","smokes marijuana",3,"year",2194,"agree-key","baseline"
17,"hobby","truthJudge","hiked","male",NA,"Yesterday, George was in a motorcycle accident and will never walk again.","George","hikes",3,"year",5895,"disagree-key","preventative"
17,"employment","truthJudge","stole chewing gum","male",NA,"Yesterday, Kyle learned a new trick to distract shopkeepers.","Kyle","steals chewing gum",3,"5 years",4003,"agree-key","enabling"
17,"food","truthJudge","drank beer","female",NA,"Yesterday, Shannon gave up alcohol and entered into Alcoholics Anonymous.","Shannon","drinks beer",3,"month",1760,"agree-key","preventative"
17,"clothing","truthJudge","wore a suit","female",NA,"Yesterday, Maya got a high paying job on Wall Street.","Maya","wears a suit",3,"month",2654,"agree-key","enabling"
17,"employment","truthJudge","wrote a novel","female",NA,"Yesterday, Kristina finished an MFA program and quit her other job to focus on writing novels.","Kristina","writes novels",3,"5 years",1212,"agree-key","enabling"
17,"employment","truthJudge","volunteered for a soup kitchen","female",NA,"Yesterday, Kathleen researched a new soup kitchen in the area and is going to volunteer with them.","Kathleen","volunteers for soup kitchens",3,"5 years",1512,"agree-key","enabling"
17,"food","truthJudge","ate caviar","male",NA,"","Ronald","eats caviar",3,"5 years",1442,"agree-key","baseline"
17,"food","truthJudge","smoked marijuana","female",NA,"","Jennifer","smokes marijuana",3,"year",780,"agree-key","baseline"
17,"hobby","truthJudge","played tennis","female",NA,"Yesterday, Elizabeth developed crippling arthritis in both elbows and can only move her arms extremely slowly.","Elizabeth","plays tennis",3,"year",5701,"disagree-key","preventative"
17,"employment","truthJudge","stole a car","female",NA,"Yesterday, Veronica got caught and went through a radical transformation, vowing to never break the law again.","Veronica","steals cars",3,"5 years",1733,"disagree-key","preventative"
17,"food","truthJudge","did cocaine","female",NA,"","Jackie","does cocaine",3,"year",1453,"disagree-key","baseline"
17,"entertainment","truthJudge","watched professional football","male",NA,"","Stephen","watches professional football",3,"year",1205,"agree-key","baseline"
17,"entertainment","truthJudge","watched space launches","female",NA,"Yesterday, Kim remembered how much enjoyable that was and researched all of the space launches in the next year within driving distance.","Kim","watches space launches",3,"2 years",2281,"agree-key","enabling"
17,"food","truthJudge","ate peanut butter","female",NA,"Yesterday, Nicole developed a peanut allergy.","Nicole","eats peanut butter",3,"year",1591,"agree-key","preventative"
17,"food","truthJudge","drank coffee","male",NA,"","Jack","drinks coffee",3,"month",2899,"agree-key","baseline"
17,"hobby","truthJudge","played the banjo","female",NA,"","Crystal","plays the banjo",3,"year",1565,"agree-key","baseline"
17,"hobby","truthJudge","ran","male",NA,"","Martin","runs",3,"2 months",1033,"agree-key","baseline"
17,"hobby","truthJudge","climbed mountains","male",NA,"Yesterday, Tim turned 80 and gave up all strenuous physical exercise because his doctor said it would be deadly.","Tim","climbs mountains",3,"5 years",2155,"disagree-key","preventative"
17,"employment","truthJudge","wrote a poem","male",NA,"Yesterday, Jacob finished an MFA program and quit his other job to focus on writing poems.","Jacob","writes poems",3,"year",2162,"agree-key","enabling"
17,"employment","truthJudge","volunteered for a political campaign","male",NA,"Yesterday, Doug grew disillusioned with the political system and wants nothing to do with it anymore.","Doug","volunteers for political campaigns",3,"5 years",1883,"disagree-key","preventative"
17,"food","truthJudge","smoked cigarettes","male",NA,"Yesterday, Robert wanted a smoke and bought a pack of cigarettes.","Robert","smokes cigarettes",3,"month",3163,"disagree-key","enabling"
18,"food","truthJudge","ate caviar","male",NA,"Yesterday, Stephen developed a seafood allergy.","Stephen","eats caviar",3,"5 years",2599,"agree-key","preventative"
18,"food","truthJudge","drank beer","male",NA,"Yesterday, Lucas wanted to get tipsy and bought a six-pack of beer.","Lucas","drinks beer",3,"month",994,"agree-key","enabling"
18,"food","truthJudge","did cocaine","female",NA,"Yesterday, Sophia realized she is severely allergic to cocaine and will no longer do it.","Sophia","does cocaine",3,"year",1365,"agree-key","preventative"
18,"employment","truthJudge","volunteered for a political campaign","male",NA,"Yesterday, Anthony researched a new political candidate in the area and is going to volunteer with them.","Anthony","volunteers for political campaigns",3,"5 years",590,"disagree-key","enabling"
18,"food","truthJudge","ate peanut butter","male",NA,"","Ted","eats peanut butter",3,"year",356,"agree-key","baseline"
18,"food","truthJudge","smoked cigarettes","female",NA,"Yesterday, Hillary wanted a smoke and bought a pack of cigarettes.","Hillary","smokes cigarettes",3,"month",1569,"agree-key","enabling"
18,"hobby","truthJudge","climbed mountains","male",NA,"","Christopher","climbs mountains",3,"5 years",475,"agree-key","baseline"
18,"entertainment","truthJudge","watched professional football","male",NA,"Yesterday, Scott learned about all the corruption in professional sports and no longer can watch it.","Scott","watches professional football",3,"year",302,"agree-key","preventative"
18,"employment","truthJudge","volunteered for a soup kitchen","male",NA,"Yesterday, Greg researched a new soup kitchen in the area and is going to volunteer with them.","Greg","volunteers for soup kitchens",3,"5 years",149,"disagree-key","enabling"
18,"employment","truthJudge","wrote a novel","male",NA,"Yesterday, Jacob finished an MFA program and quit his other job to focus on writing novels.","Jacob","writes novels",3,"5 years",455,"agree-key","enabling"
18,"hobby","truthJudge","ran","female",NA,"","Julia","runs",3,"2 months",749,"agree-key","baseline"
18,"employment","truthJudge","stole a car","male",NA,"Yesterday, Ben got caught and went through a radical transformation, vowing to never break the law again.","Ben","steals cars",3,"5 years",653,"disagree-key","preventative"
18,"hobby","truthJudge","hiked","female",NA,"Yesterday, Veronica was in a motorcycle accident and will never walk again.","Veronica","hikes",3,"year",558,"agree-key","preventative"
18,"food","truthJudge","drank coffee","male",NA,"","Brian","drinks coffee",3,"month",1207,"agree-key","baseline"
18,"employment","truthJudge","wrote a poem","female",NA,"Yesterday, Kathleen became fed up with the poetry world and decided to never write poems again.","Kathleen","writes poems",3,"year",989,"agree-key","preventative"
18,"employment","truthJudge","stole chewing gum","female",NA,"Yesterday, Kristina learned a new trick to distract shopkeepers.","Kristina","steals chewing gum",3,"5 years",104,"disagree-key","enabling"
18,"food","truthJudge","smoked marijuana","female",NA,"Yesterday, Jennifer realized she is severely allergic to marijuana and will no longer smoke it.","Jennifer","smokes marijuana",3,"year",48,"disagree-key","preventative"
18,"hobby","truthJudge","played tennis","male",NA,"","Josh","plays tennis",3,"year",478,"agree-key","baseline"
18,"entertainment","truthJudge","watched space launches","female",NA,"","Crystal","watches space launches",3,"2 years",357,"agree-key","baseline"
18,"hobby","truthJudge","played the banjo","male",NA,"Yesterday, Robert remembered how much fun that was and joined his friend&quotechars band as the banjoist.","Robert","plays the banjo",3,"year",127,"disagree-key","enabling"
18,"clothing","truthJudge","wore a suit","female",NA,"","Maya","wears a suit",3,"month",398,"disagree-key","baseline"
19,"food","truthJudge","smoked marijuana","male",NA,"Yesterday, Robert realized he is severely allergic to marijuana and will no longer smoke it.","Robert","smokes marijuana",3,"year",5386,"agree-key","preventative"
19,"employment","truthJudge","stole a car","female",NA,"Yesterday, Esther got caught and went through a radical transformation, vowing to never break the law again.","Esther","steals cars",3,"5 years",7289,"agree-key","preventative"
19,"food","truthJudge","did cocaine","female",NA,"Yesterday, Jackie wanted to get high and bought some cocaine.","Jackie","does cocaine",3,"year",5169,"agree-key","enabling"
19,"employment","truthJudge","volunteered for a soup kitchen","male",NA,"","Lucas","volunteers for soup kitchens",3,"5 years",4497,"agree-key","baseline"
19,"entertainment","truthJudge","watched professional football","female",NA,"Yesterday, Jennifer remembered how much enjoyable that was and upgraded her cable to have access to all professional football games.","Jennifer","watches professional football",3,"year",4247,"disagree-key","enabling"
19,"hobby","truthJudge","hiked","male",NA,"","Kyle","hikes",3,"year",2878,"agree-key","baseline"
19,"food","truthJudge","smoked cigarettes","female",NA,"Yesterday, Monica quit smoking cigarettes.","Monica","smokes cigarettes",3,"month",2376,"disagree-key","preventative"
19,"employment","truthJudge","volunteered for a political campaign","female",NA,"Yesterday, Jessica researched a new political candidate in the area and is going to volunteer with them.","Jessica","volunteers for political campaigns",3,"5 years",2387,"disagree-key","enabling"
19,"clothing","truthJudge","wore a suit","female",NA,"Yesterday, Natalie got fired from her job on Wall Street and now works in a pizza parlor.","Natalie","wears a suit",3,"month",2324,"agree-key","preventative"
19,"hobby","truthJudge","played the banjo","male",NA,"Yesterday, David developed crippling arthritis in his hands and no longer can play musical instruments.","David","plays the banjo",3,"year",1868,"disagree-key","preventative"
19,"hobby","truthJudge","climbed mountains","female",NA,"","Theresa","climbs mountains",3,"5 years",2569,"disagree-key","baseline"
19,"entertainment","truthJudge","watched space launches","male",NA,"","Michael","watches space launches",3,"2 years",2063,"disagree-key","baseline"
19,"food","truthJudge","ate peanut butter","male",NA,"Yesterday, William learned about the dietary benefits of eating peanut butter and bought a jar at the supermaket.","William","eats peanut butter",3,"year",1945,"disagree-key","enabling"
19,"employment","truthJudge","wrote a novel","male",NA,"Yesterday, Lewis finished an MFA program and quit his other job to focus on writing novels.","Lewis","writes novels",3,"5 years",2361,"agree-key","enabling"
19,"food","truthJudge","drank beer","male",NA,"Yesterday, Stephen wanted to get tipsy and bought a six-pack of beer.","Stephen","drinks beer",3,"month",2498,"agree-key","enabling"
19,"employment","truthJudge","stole chewing gum","female",NA,"Yesterday, Shannon got caught and vowed to never break the law again.","Shannon","steals chewing gum",3,"5 years",3715,"agree-key","preventative"
19,"hobby","truthJudge","ran","male",NA,"","Doug","runs",3,"2 months",3059,"disagree-key","baseline"
19,"food","truthJudge","drank coffee","female",NA,"Yesterday, Angela wanted a morning jolt and bought a pound of fresh roasted coffee.","Angela","drinks coffee",3,"month",2005,"disagree-key","enabling"
19,"food","truthJudge","ate caviar","male",NA,"","Brian","eats caviar",3,"5 years",2052,"disagree-key","baseline"
19,"employment","truthJudge","wrote a poem","female",NA,"","Michelle","writes poems",3,"year",1526,"agree-key","baseline"
19,"hobby","truthJudge","played tennis","female",NA,"Yesterday, Ashley developed crippling arthritis in both elbows and can only move her arms extremely slowly.","Ashley","plays tennis",3,"year",2858,"disagree-key","preventative"
20,"employment","truthJudge","wrote a novel","female",NA,"Yesterday, Julia became fed up with the literary world and decided to never write anything again.","Julia","writes novels",3,"5 years",8034,"agree-key","preventative"
20,"clothing","truthJudge","wore a suit","female",NA,"","Sophia","wears a suit",3,"month",5317,"agree-key","baseline"
20,"hobby","truthJudge","played tennis","male",NA,"Yesterday, Daniel developed crippling arthritis in both elbows and can only move his arms extremely slowly.","Daniel","plays tennis",3,"year",11221,"disagree-key","preventative"
20,"food","truthJudge","smoked marijuana","male",NA,"Yesterday, Stephen wanted to get high and bought some marijuana.","Stephen","smokes marijuana",3,"year",5146,"agree-key","enabling"
20,"hobby","truthJudge","hiked","female",NA,"Yesterday, Claire remembered how much fun those times were and bought a lot of new hiking gear.","Claire","hikes",3,"year",6019,"agree-key","enabling"
20,"hobby","truthJudge","climbed mountains","female",NA,"Yesterday, Hillary turned 80 and gave up all strenuous physical exercise because her doctor said it would be deadly.","Hillary","climbs mountains",3,"5 years",5865,"disagree-key","preventative"
20,"food","truthJudge","ate peanut butter","female",NA,"Yesterday, Crystal learned about the dietary benefits of eating peanut butter and bought a jar at the supermaket.","Crystal","eats peanut butter",3,"year",5907,"agree-key","enabling"
20,"hobby","truthJudge","ran","female",NA,"","Kristina","runs",3,"2 months",3057,"agree-key","baseline"
20,"employment","truthJudge","volunteered for a soup kitchen","male",NA,"","Doug","volunteers for soup kitchens",3,"5 years",4411,"agree-key","baseline"
20,"employment","truthJudge","stole a car","male",NA,"Yesterday, Kyle learned a new technique for breaking into cars.","Kyle","steals cars",3,"5 years",5846,"disagree-key","enabling"
20,"food","truthJudge","smoked cigarettes","female",NA,"","Maya","smokes cigarettes",3,"month",5900,"agree-key","baseline"
20,"food","truthJudge","drank beer","male",NA,"Yesterday, William wanted to get tipsy and bought a six-pack of beer.","William","drinks beer",3,"month",5882,"agree-key","enabling"
20,"food","truthJudge","did cocaine","female",NA,"Yesterday, Amber realized she is severely allergic to cocaine and will no longer do it.","Amber","does cocaine",3,"year",3189,"agree-key","preventative"
20,"hobby","truthJudge","played the banjo","female",NA,"Yesterday, Michelle remembered how much fun that was and joined her friend&quotechars band as the banjoist.","Michelle","plays the banjo",3,"year",7330,"agree-key","enabling"
20,"entertainment","truthJudge","watched professional football","male",NA,"Yesterday, Cameron remembered how much enjoyable that was and upgraded his cable to have access to all professional football games.","Cameron","watches professional football",3,"year",7816,"disagree-key","enabling"
20,"employment","truthJudge","stole chewing gum","male",NA,"Yesterday, Anthony got caught and vowed to never break the law again.","Anthony","steals chewing gum",3,"5 years",7742,"agree-key","preventative"
20,"employment","truthJudge","volunteered for a political campaign","female",NA,"Yesterday, Nicole grew disillusioned with the political system and wants nothing to do with it anymore.","Nicole","volunteers for political campaigns",3,"5 years",5709,"agree-key","preventative"
20,"food","truthJudge","ate caviar","female",NA,"","Elisa","eats caviar",3,"5 years",3273,"agree-key","baseline"
20,"entertainment","truthJudge","watched space launches","female",NA,"Yesterday, Brooke went through a radical transformation and now it is against her belief to witness anything relating to space travel.","Brooke","watches space launches",3,"2 years",8834,"agree-key","preventative"
20,"employment","truthJudge","wrote a poem","female",NA,"","Rebecca","writes poems",3,"year",2594,"agree-key","baseline"
20,"food","truthJudge","drank coffee","male",NA,"","Ted","drinks coffee",3,"month",1766,"agree-key","baseline"
21,"employment","truthJudge","volunteered for a soup kitchen","female",NA,"Yesterday, Monica grew disillusioned with the soup kitchen system and wants nothing to do with it anymore.","Monica","volunteers for soup kitchens",3,"5 years",12085,"disagree-key","preventative"
21,"food","truthJudge","did cocaine","male",NA,"Yesterday, Jack realized he is severely allergic to cocaine and will no longer do it.","Jack","does cocaine",3,"year",3228,"disagree-key","preventative"
21,"food","truthJudge","ate caviar","female",NA,"Yesterday, Kristina developed a seafood allergy.","Kristina","eats caviar",3,"5 years",3541,"disagree-key","preventative"
21,"food","truthJudge","smoked marijuana","male",NA,"Yesterday, Derrick realized he is severely allergic to marijuana and will no longer smoke it.","Derrick","smokes marijuana",3,"year",3022,"disagree-key","preventative"
21,"employment","truthJudge","wrote a novel","male",NA,"Yesterday, Christopher finished an MFA program and quit his other job to focus on writing novels.","Christopher","writes novels",3,"5 years",8702,"agree-key","enabling"
21,"hobby","truthJudge","ran","female",NA,"","Kim","runs",3,"2 months",3142,"disagree-key","baseline"
21,"food","truthJudge","smoked cigarettes","male",NA,"Yesterday, Daniel quit smoking cigarettes.","Daniel","smokes cigarettes",3,"month",3532,"disagree-key","preventative"
21,"employment","truthJudge","stole chewing gum","female",NA,"Yesterday, Bridgette learned a new trick to distract shopkeepers.","Bridgette","steals chewing gum",3,"5 years",5606,"agree-key","enabling"
21,"entertainment","truthJudge","watched professional football","female",NA,"Yesterday, Jackie learned about all the corruption in professional sports and no longer can watch it.","Jackie","watches professional football",3,"year",10413,"disagree-key","preventative"
21,"food","truthJudge","drank beer","male",NA,"","Stephen","drinks beer",3,"month",4758,"agree-key","baseline"
21,"food","truthJudge","drank coffee","female",NA,"","Crystal","drinks coffee",3,"month",1542,"agree-key","baseline"
21,"hobby","truthJudge","played the banjo","male",NA,"Yesterday, Alexander remembered how much fun that was and joined his friend&quotechars band as the banjoist.","Alexander","plays the banjo",3,"year",3926,"agree-key","enabling"
21,"hobby","truthJudge","played tennis","male",NA,"Yesterday, Gabriel remembered how much fun that was and bought a new tennis racket.","Gabriel","plays tennis",3,"year",4557,"agree-key","enabling"
21,"clothing","truthJudge","wore a suit","female",NA,"Yesterday, Jennifer got fired from her job on Wall Street and now works in a pizza parlor.","Jennifer","wears a suit",3,"month",3382,"disagree-key","preventative"
21,"food","truthJudge","ate peanut butter","female",NA,"","Alicia","eats peanut butter",3,"year",5428,"agree-key","baseline"
21,"employment","truthJudge","wrote a poem","male",NA,"","Ted","writes poems",3,"year",2126,"agree-key","baseline"
21,"employment","truthJudge","stole a car","male",NA,"Yesterday, Cameron learned a new technique for breaking into cars.","Cameron","steals cars",3,"5 years",4436,"agree-key","enabling"
21,"hobby","truthJudge","hiked","female",NA,"","Kathleen","hikes",3,"year",3293,"agree-key","baseline"
21,"hobby","truthJudge","climbed mountains","female",NA,"Yesterday, Janet remembered how much fun that was bought a lot of new mountain climbing gear.","Janet","climbs mountains",3,"5 years",3510,"agree-key","enabling"
21,"entertainment","truthJudge","watched space launches","female",NA,"","Julia","watches space launches",3,"2 years",2814,"agree-key","baseline"
21,"employment","truthJudge","volunteered for a political campaign","female",NA,"Yesterday, Sophia researched a new political candidate in the area and is going to volunteer with them.","Sophia","volunteers for political campaigns",3,"5 years",6718,"agree-key","enabling"
22,"food","truthJudge","ate peanut butter","female",NA,"","Natalie","eats peanut butter",3,"year",3660,"agree-key","baseline"
22,"food","truthJudge","did cocaine","male",NA,"Yesterday, Greg realized he is severely allergic to cocaine and will no longer do it.","Greg","does cocaine",3,"year",559,"agree-key","preventative"
22,"hobby","truthJudge","hiked","female",NA,"Yesterday, Elizabeth remembered how much fun those times were and bought a lot of new hiking gear.","Elizabeth","hikes",3,"year",22,"agree-key","enabling"
22,"employment","truthJudge","volunteered for a political campaign","male",NA,"Yesterday, Ronald researched a new political candidate in the area and is going to volunteer with them.","Ronald","volunteers for political campaigns",3,"5 years",187,"agree-key","enabling"
22,"hobby","truthJudge","played the banjo","female",NA,"Yesterday, Claire remembered how much fun that was and joined her friend&quotechars band as the banjoist.","Claire","plays the banjo",3,"year",44,"disagree-key","enabling"
22,"entertainment","truthJudge","watched professional football","female",NA,"Yesterday, Julia learned about all the corruption in professional sports and no longer can watch it.","Julia","watches professional football",3,"year",38,"agree-key","preventative"
22,"food","truthJudge","smoked marijuana","female",NA,"Yesterday, Veronica wanted to get high and bought some marijuana.","Veronica","smokes marijuana",3,"year",78,"agree-key","enabling"
22,"employment","truthJudge","stole a car","female",NA,"","Shannon","steals cars",3,"5 years",61,"disagree-key","baseline"
22,"employment","truthJudge","stole chewing gum","female",NA,"","Kristina","steals chewing gum",3,"5 years",795,"disagree-key","baseline"
22,"employment","truthJudge","volunteered for a soup kitchen","female",NA,"Yesterday, Jennifer grew disillusioned with the soup kitchen system and wants nothing to do with it anymore.","Jennifer","volunteers for soup kitchens",3,"5 years",136,"disagree-key","preventative"
22,"entertainment","truthJudge","watched space launches","female",NA,"","Rebecca","watches space launches",3,"2 years",292,"agree-key","baseline"
22,"hobby","truthJudge","played tennis","female",NA,"Yesterday, Linda developed crippling arthritis in both elbows and can only move her arms extremely slowly.","Linda","plays tennis",3,"year",125,"disagree-key","preventative"
22,"food","truthJudge","drank beer","female",NA,"Yesterday, Hillary gave up alcohol and entered into Alcoholics Anonymous.","Hillary","drinks beer",3,"month",326,"disagree-key","preventative"
22,"clothing","truthJudge","wore a suit","female",NA,"","Theresa","wears a suit",3,"month",61,"agree-key","baseline"
22,"employment","truthJudge","wrote a poem","female",NA,"Yesterday, Tina became fed up with the poetry world and decided to never write poems again.","Tina","writes poems",3,"year",325,"disagree-key","preventative"
22,"hobby","truthJudge","climbed mountains","female",NA,"","Crystal","climbs mountains",3,"5 years",91,"disagree-key","baseline"
22,"hobby","truthJudge","ran","female",NA,"Yesterday, Michelle remembered how much fun those times were and bought a new pair of running shoes.","Michelle","runs",3,"2 months",157,"disagree-key","enabling"
22,"food","truthJudge","drank coffee","male",NA,"Yesterday, Doug developed a caffeine allergy and decided to give up all caffeine.","Doug","drinks coffee",3,"month",589,"disagree-key","preventative"
22,"food","truthJudge","ate caviar","male",NA,"Yesterday, Scott learned about the dietary benefits of eating caviar and bought a jar at the supermaket.","Scott","eats caviar",3,"5 years",262,"disagree-key","enabling"
22,"employment","truthJudge","wrote a novel","female",NA,"Yesterday, Kim finished an MFA program and quit her other job to focus on writing novels.","Kim","writes novels",3,"5 years",214,"agree-key","enabling"
22,"food","truthJudge","smoked cigarettes","female",NA,"","Stephanie","smokes cigarettes",3,"month",103,"agree-key","baseline"
23,"hobby","truthJudge","played tennis","female",NA,"","Amber","plays tennis",3,"year",28172,"agree-key","baseline"
23,"employment","truthJudge","wrote a poem","female",NA,"Yesterday, Jessica finished an MFA program and quit her other job to focus on writing poems.","Jessica","writes poems",3,"year",8615,"agree-key","enabling"
23,"food","truthJudge","drank beer","female",NA,"","Natalie","drinks beer",3,"month",2077,"agree-key","baseline"
23,"clothing","truthJudge","wore a suit","male",NA,"Yesterday, Scott got fired from his job on Wall Street and now works in a pizza parlor.","Scott","wears a suit",3,"month",4038,"disagree-key","preventative"
23,"hobby","truthJudge","hiked","female",NA,"","Laura","hikes",3,"year",2887,"agree-key","baseline"
23,"food","truthJudge","smoked cigarettes","male",NA,"Yesterday, Ben quit smoking cigarettes.","Ben","smokes cigarettes",3,"month",5809,"disagree-key","preventative"
23,"food","truthJudge","ate caviar","female",NA,"Yesterday, Melinda developed a seafood allergy.","Melinda","eats caviar",3,"5 years",4312,"disagree-key","preventative"
23,"entertainment","truthJudge","watched professional football","male",NA,"Yesterday, Michael remembered how much enjoyable that was and upgraded his cable to have access to all professional football games.","Michael","watches professional football",3,"year",19056,"agree-key","enabling"
23,"food","truthJudge","smoked marijuana","female",NA,"Yesterday, Monica wanted to get high and bought some marijuana.","Monica","smokes marijuana",3,"year",3707,"agree-key","enabling"
23,"employment","truthJudge","stole a car","male",NA,"Yesterday, Kyle learned a new technique for breaking into cars.","Kyle","steals cars",3,"5 years",3148,"agree-key","enabling"
23,"employment","truthJudge","volunteered for a soup kitchen","female",NA,"","Elisa","volunteers for soup kitchens",3,"5 years",2139,"agree-key","baseline"
23,"hobby","truthJudge","climbed mountains","male",NA,"","Christopher","climbs mountains",3,"5 years",4458,"agree-key","baseline"
23,"hobby","truthJudge","played the banjo","female",NA,"","Jennifer","plays the banjo",3,"year",3256,"agree-key","baseline"
23,"entertainment","truthJudge","watched space launches","male",NA,"Yesterday, Daniel remembered how much enjoyable that was and researched all of the space launches in the next year within driving distance.","Daniel","watches space launches",3,"2 years",24350,"agree-key","enabling"
23,"food","truthJudge","did cocaine","male",NA,"Yesterday, Josh realized he is severely allergic to cocaine and will no longer do it.","Josh","does cocaine",3,"year",7529,"disagree-key","preventative"
23,"food","truthJudge","drank coffee","male",NA,"Yesterday, Fred wanted a morning jolt and bought a pound of fresh roasted coffee.","Fred","drinks coffee",3,"month",3203,"agree-key","enabling"
23,"hobby","truthJudge","ran","female",NA,"Yesterday, Nicole was in a car accident and became permanently paralyzed from the waist down.","Nicole","runs",3,"2 months",2756,"disagree-key","preventative"
23,"employment","truthJudge","wrote a novel","male",NA,"","Lee","writes novels",3,"5 years",2818,"agree-key","baseline"
23,"food","truthJudge","ate peanut butter","female",NA,"Yesterday, Veronica developed a peanut allergy.","Veronica","eats peanut butter",3,"year",6750,"disagree-key","preventative"
23,"employment","truthJudge","stole chewing gum","female",NA,"Yesterday, Angela got caught and vowed to never break the law again.","Angela","steals chewing gum",3,"5 years",9137,"disagree-key","preventative"
23,"employment","truthJudge","volunteered for a political campaign","female",NA,"Yesterday, Crystal researched a new political candidate in the area and is going to volunteer with them.","Crystal","volunteers for political campaigns",3,"5 years",6306,"agree-key","enabling"
24,"food","truthJudge","did cocaine","male",NA,"Yesterday, Lee wanted to get high and bought some cocaine.","Lee","does cocaine",3,"year",6203,"agree-key","enabling"
24,"employment","truthJudge","wrote a novel","female",NA,"Yesterday, Janet became fed up with the literary world and decided to never write anything again.","Janet","writes novels",3,"5 years",9506,"disagree-key","preventative"
24,"food","truthJudge","ate caviar","male",NA,"Yesterday, Martin learned about the dietary benefits of eating caviar and bought a jar at the supermaket.","Martin","eats caviar",3,"5 years",18438,"agree-key","enabling"
24,"employment","truthJudge","stole chewing gum","male",NA,"","Kyle","steals chewing gum",3,"5 years",7470,"agree-key","baseline"
24,"food","truthJudge","ate peanut butter","male",NA,"Yesterday, Scott learned about the dietary benefits of eating peanut butter and bought a jar at the supermaket.","Scott","eats peanut butter",3,"year",5502,"agree-key","enabling"
24,"employment","truthJudge","volunteered for a political campaign","female",NA,"Yesterday, Laura researched a new political candidate in the area and is going to volunteer with them.","Laura","volunteers for political campaigns",3,"5 years",9966,"agree-key","enabling"
24,"clothing","truthJudge","wore a suit","male",NA,"Yesterday, Alexander got a high paying job on Wall Street.","Alexander","wears a suit",3,"month",5997,"agree-key","enabling"
24,"hobby","truthJudge","hiked","female",NA,"Yesterday, Nicole was in a motorcycle accident and will never walk again.","Nicole","hikes",3,"year",5277,"disagree-key","preventative"
24,"hobby","truthJudge","played tennis","male",NA,"","Michael","plays tennis",3,"year",12525,"agree-key","baseline"
24,"food","truthJudge","smoked cigarettes","female",NA,"","Monica","smokes cigarettes",3,"month",3829,"agree-key","baseline"
24,"employment","truthJudge","wrote a poem","male",NA,"","Gabriel","writes poems",3,"year",3982,"agree-key","baseline"
24,"employment","truthJudge","volunteered for a soup kitchen","female",NA,"","Theresa","volunteers for soup kitchens",3,"5 years",3814,"agree-key","baseline"
24,"food","truthJudge","drank coffee","female",NA,"Yesterday, Kelly developed a caffeine allergy and decided to give up all caffeine.","Kelly","drinks coffee",3,"month",3502,"disagree-key","preventative"
24,"food","truthJudge","smoked marijuana","female",NA,"Yesterday, Stephanie realized she is severely allergic to marijuana and will no longer smoke it.","Stephanie","smokes marijuana",3,"year",4565,"disagree-key","preventative"
24,"hobby","truthJudge","played the banjo","male",NA,"","Eric","plays the banjo",3,"year",3862,"agree-key","baseline"
24,"employment","truthJudge","stole a car","male",NA,"Yesterday, Vince got caught and went through a radical transformation, vowing to never break the law again.","Vince","steals cars",3,"5 years",5749,"agree-key","preventative"
24,"hobby","truthJudge","climbed mountains","female",NA,"Yesterday, Michelle turned 80 and gave up all strenuous physical exercise because her doctor said it would be deadly.","Michelle","climbs mountains",3,"5 years",5846,"disagree-key","preventative"
24,"food","truthJudge","drank beer","female",NA,"Yesterday, Jackie wanted to get tipsy and bought a six-pack of beer.","Jackie","drinks beer",3,"month",4558,"agree-key","enabling"
24,"entertainment","truthJudge","watched space launches","female",NA,"Yesterday, Tina went through a radical transformation and now it is against her belief to witness anything relating to space travel.","Tina","watches space launches",3,"2 years",22660,"disagree-key","preventative"
24,"entertainment","truthJudge","watched professional football","female",NA,"","Julia","watches professional football",3,"year",4934,"agree-key","baseline"
24,"hobby","truthJudge","ran","male",NA,"Yesterday, Anthony remembered how much fun those times were and bought a new pair of running shoes.","Anthony","runs",3,"2 months",12166,"agree-key","enabling"
25,"entertainment","truthJudge","watched professional football","female",NA,"Yesterday, Esther remembered how much enjoyable that was and upgraded her cable to have access to all professional football games.","Esther","watches professional football",3,"year",12601,"agree-key","enabling"
25,"entertainment","truthJudge","watched space launches","male",NA,"Yesterday, Stephen remembered how much enjoyable that was and researched all of the space launches in the next year within driving distance.","Stephen","watches space launches",3,"2 years",9136,"agree-key","enabling"
25,"hobby","truthJudge","ran","female",NA,"Yesterday, Maya remembered how much fun those times were and bought a new pair of running shoes.","Maya","runs",3,"2 months",4491,"agree-key","enabling"
25,"food","truthJudge","drank coffee","male",NA,"Yesterday, George developed a caffeine allergy and decided to give up all caffeine.","George","drinks coffee",3,"month",6325,"disagree-key","preventative"
25,"hobby","truthJudge","hiked","male",NA,"Yesterday, Cameron remembered how much fun those times were and bought a lot of new hiking gear.","Cameron","hikes",3,"year",5486,"agree-key","enabling"
25,"hobby","truthJudge","played the banjo","female",NA,"Yesterday, Claire remembered how much fun that was and joined her friend&quotechars band as the banjoist.","Claire","plays the banjo",3,"year",5039,"agree-key","enabling"
25,"employment","truthJudge","wrote a novel","female",NA,"Yesterday, Stephanie became fed up with the literary world and decided to never write anything again.","Stephanie","writes novels",3,"5 years",8899,"disagree-key","preventative"
25,"food","truthJudge","did cocaine","male",NA,"","Vince","does cocaine",3,"year",3214,"agree-key","baseline"
25,"employment","truthJudge","wrote a poem","male",NA,"","Gabriel","writes poems",3,"year",3208,"agree-key","baseline"
25,"food","truthJudge","ate peanut butter","female",NA,"Yesterday, Nicole developed a peanut allergy.","Nicole","eats peanut butter",3,"year",5333,"disagree-key","preventative"
