"workerid","rt","trial_type","story","trial_num","target","experimentResults","missing","n_data","condition","frequency","treatment","query","distribution","category","response","unit"
0,85719,"causals","animal make sleepy",0,"makes CATEGORY sleepy","[0, 20, 0, u'?', 10, 0, 0, 15, 0, 20, 0]",3,10,"prior",-99,"herb","make the animals sleepy","rare_weak","zoovs",0,"animals"
0,85719,"causals","animal make sleepy",0,"makes CATEGORY sleepy","[0, 20, 0, u'?', 10, 0, 0, 15, 0, 20, 0]",3,10,"prior",-99,"herb","make the animals sleepy","rare_weak","zoovs",0.13,"animals"
0,85719,"causals","animal make sleepy",0,"makes CATEGORY sleepy","[0, 20, 0, u'?', 10, 0, 0, 15, 0, 20, 0]",3,10,"prior",-99,"herb","make the animals sleepy","rare_weak","zoovs",0,"animals"
0,85719,"causals","animal make sleepy",0,"makes CATEGORY sleepy","[0, 20, 0, u'?', 10, 0, 0, 15, 0, 20, 0]",3,10,"prior",-99,"herb","make the animals sleepy","rare_weak","zoovs",0,"animals"
0,85719,"causals","animal make sleepy",0,"makes CATEGORY sleepy","[0, 20, 0, u'?', 10, 0, 0, 15, 0, 20, 0]",3,10,"prior",-99,"herb","make the animals sleepy","rare_weak","zoovs",0.14,"animals"
1,55059,"causals","rocks dissolve",0,"makes CATEGORY dissolve","[0, 0, 100, 100, u'?', 0, 0, 100, 0, 0, 100]",4,10,"prior",-99,"compound","make the rocks dissolve","rare_deterministic","morseths",0,"rocks"
1,55059,"causals","rocks dissolve",0,"makes CATEGORY dissolve","[0, 0, 100, 100, u'?', 0, 0, 100, 0, 0, 100]",4,10,"prior",-99,"compound","make the rocks dissolve","rare_deterministic","morseths",0,"rocks"
1,55059,"causals","rocks dissolve",0,"makes CATEGORY dissolve","[0, 0, 100, 100, u'?', 0, 0, 100, 0, 0, 100]",4,10,"prior",-99,"compound","make the rocks dissolve","rare_deterministic","morseths",0.01,"rocks"
1,55059,"causals","rocks dissolve",0,"makes CATEGORY dissolve","[0, 0, 100, 100, u'?', 0, 0, 100, 0, 0, 100]",4,10,"prior",-99,"compound","make the rocks dissolve","rare_deterministic","morseths",0.01,"rocks"
1,55059,"causals","rocks dissolve",0,"makes CATEGORY dissolve","[0, 0, 100, 100, u'?', 0, 0, 100, 0, 0, 100]",4,10,"prior",-99,"compound","make the rocks dissolve","rare_deterministic","morseths",0.02,"rocks"
2,66176,"causals","animal make sleepy",0,"makes CATEGORY sleepy","[75, 65, 65, u'?', 75, 80, 90, 80, 75, 80, 90]",3,10,"prior",-99,"herb","make the animals sleepy","common_strong","pangolins",0.81,"animals"
2,66176,"causals","animal make sleepy",0,"makes CATEGORY sleepy","[75, 65, 65, u'?', 75, 80, 90, 80, 75, 80, 90]",3,10,"prior",-99,"herb","make the animals sleepy","common_strong","pangolins",0.69,"animals"
2,66176,"causals","animal make sleepy",0,"makes CATEGORY sleepy","[75, 65, 65, u'?', 75, 80, 90, 80, 75, 80, 90]",3,10,"prior",-99,"herb","make the animals sleepy","common_strong","pangolins",0.8,"animals"
2,66176,"causals","animal make sleepy",0,"makes CATEGORY sleepy","[75, 65, 65, u'?', 75, 80, 90, 80, 75, 80, 90]",3,10,"prior",-99,"herb","make the animals sleepy","common_strong","pangolins",0.62,"animals"
2,66176,"causals","animal make sleepy",0,"makes CATEGORY sleepy","[75, 65, 65, u'?', 75, 80, 90, 80, 75, 80, 90]",3,10,"prior",-99,"herb","make the animals sleepy","common_strong","pangolins",0.7,"animals"
3,178252,"causals","rocks dissolve",0,"makes CATEGORY dissolve","[75, 0, 65, u'?', 0, 80, 90, 0, 0, 80, 90]",3,10,"prior",-99,"compound","make the rocks dissolve","rare_strong","trufts",0.73,"rocks"
3,178252,"causals","rocks dissolve",0,"makes CATEGORY dissolve","[75, 0, 65, u'?', 0, 80, 90, 0, 0, 80, 90]",3,10,"prior",-99,"compound","make the rocks dissolve","rare_strong","trufts",0,"rocks"
3,178252,"causals","rocks dissolve",0,"makes CATEGORY dissolve","[75, 0, 65, u'?', 0, 80, 90, 0, 0, 80, 90]",3,10,"prior",-99,"compound","make the rocks dissolve","rare_strong","trufts",0.59,"rocks"
3,178252,"causals","rocks dissolve",0,"makes CATEGORY dissolve","[75, 0, 65, u'?', 0, 80, 90, 0, 0, 80, 90]",3,10,"prior",-99,"compound","make the rocks dissolve","rare_strong","trufts",0,"rocks"
3,178252,"causals","rocks dissolve",0,"makes CATEGORY dissolve","[75, 0, 65, u'?', 0, 80, 90, 0, 0, 80, 90]",3,10,"prior",-99,"compound","make the rocks dissolve","rare_strong","trufts",0.81,"rocks"
4,146721,"causals","animal make sleepy",0,"makes CATEGORY sleepy","[75, 65, u'?', 65, 75, 80, 90, 80, 75, 80, 90]",2,10,"prior",-99,"herb","make the animals sleepy","common_strong","kazzes",0.71,"animals"
4,146721,"causals","animal make sleepy",0,"makes CATEGORY sleepy","[75, 65, u'?', 65, 75, 80, 90, 80, 75, 80, 90]",2,10,"prior",-99,"herb","make the animals sleepy","common_strong","kazzes",0.69,"animals"
4,146721,"causals","animal make sleepy",0,"makes CATEGORY sleepy","[75, 65, u'?', 65, 75, 80, 90, 80, 75, 80, 90]",2,10,"prior",-99,"herb","make the animals sleepy","common_strong","kazzes",0.75,"animals"
4,146721,"causals","animal make sleepy",0,"makes CATEGORY sleepy","[75, 65, u'?', 65, 75, 80, 90, 80, 75, 80, 90]",2,10,"prior",-99,"herb","make the animals sleepy","common_strong","kazzes",0.66,"animals"
4,146721,"causals","animal make sleepy",0,"makes CATEGORY sleepy","[75, 65, u'?', 65, 75, 80, 90, 80, 75, 80, 90]",2,10,"prior",-99,"herb","make the animals sleepy","common_strong","kazzes",0.72,"animals"
5,187706,"causals","plant grow indoors",0,"makes CATEGORY grow tall","[0, 0, u'?', 100, 100, 0, 0, 100, 0, 0, 100]",2,10,"prior",-99,"fertilizer","make the plants grow tall","rare_deterministic","taifels",1,"plants"
5,187706,"causals","plant grow indoors",0,"makes CATEGORY grow tall","[0, 0, u'?', 100, 100, 0, 0, 100, 0, 0, 100]",2,10,"prior",-99,"fertilizer","make the plants grow tall","rare_deterministic","taifels",1,"plants"
5,187706,"causals","plant grow indoors",0,"makes CATEGORY grow tall","[0, 0, u'?', 100, 100, 0, 0, 100, 0, 0, 100]",2,10,"prior",-99,"fertilizer","make the plants grow tall","rare_deterministic","taifels",0.01,"plants"
5,187706,"causals","plant grow indoors",0,"makes CATEGORY grow tall","[0, 0, u'?', 100, 100, 0, 0, 100, 0, 0, 100]",2,10,"prior",-99,"fertilizer","make the plants grow tall","rare_deterministic","taifels",0.98,"plants"
5,187706,"causals","plant grow indoors",0,"makes CATEGORY grow tall","[0, 0, u'?', 100, 100, 0, 0, 100, 0, 0, 100]",2,10,"prior",-99,"fertilizer","make the plants grow tall","rare_deterministic","taifels",0.03,"plants"
6,111665,"causals","rocks dissolve",0,"makes CATEGORY dissolve","[85, u'?', 75, 15, 75, 10, 90, 90, 80, 10, 20]",1,10,"prior",-99,"compound","make the rocks dissolve","weak_or_strong","mooks",0.76,"rocks"
6,111665,"causals","rocks dissolve",0,"makes CATEGORY dissolve","[85, u'?', 75, 15, 75, 10, 90, 90, 80, 10, 20]",1,10,"prior",-99,"compound","make the rocks dissolve","weak_or_strong","mooks",0.75,"rocks"
6,111665,"causals","rocks dissolve",0,"makes CATEGORY dissolve","[85, u'?', 75, 15, 75, 10, 90, 90, 80, 10, 20]",1,10,"prior",-99,"compound","make the rocks dissolve","weak_or_strong","mooks",0.6,"rocks"
6,111665,"causals","rocks dissolve",0,"makes CATEGORY dissolve","[85, u'?', 75, 15, 75, 10, 90, 90, 80, 10, 20]",1,10,"prior",-99,"compound","make the rocks dissolve","weak_or_strong","mooks",0.76,"rocks"
6,111665,"causals","rocks dissolve",0,"makes CATEGORY dissolve","[85, u'?', 75, 15, 75, 10, 90, 90, 80, 10, 20]",1,10,"prior",-99,"compound","make the rocks dissolve","weak_or_strong","mooks",0.77,"rocks"
7,65497,"causals","rocks dissolve",0,"makes CATEGORY dissolve","[0, 0, 100, 100, 0, 0, 100, u'?', 0, 0, 100]",7,10,"prior",-99,"compound","make the rocks dissolve","rare_deterministic","grinks",0.98,"rocks"
7,65497,"causals","rocks dissolve",0,"makes CATEGORY dissolve","[0, 0, 100, 100, 0, 0, 100, u'?', 0, 0, 100]",7,10,"prior",-99,"compound","make the rocks dissolve","rare_deterministic","grinks",0,"rocks"
7,65497,"causals","rocks dissolve",0,"makes CATEGORY dissolve","[0, 0, 100, 100, 0, 0, 100, u'?', 0, 0, 100]",7,10,"prior",-99,"compound","make the rocks dissolve","rare_deterministic","grinks",0.01,"rocks"
7,65497,"causals","rocks dissolve",0,"makes CATEGORY dissolve","[0, 0, 100, 100, 0, 0, 100, u'?', 0, 0, 100]",7,10,"prior",-99,"compound","make the rocks dissolve","rare_deterministic","grinks",0.99,"rocks"
7,65497,"causals","rocks dissolve",0,"makes CATEGORY dissolve","[0, 0, 100, 100, 0, 0, 100, u'?', 0, 0, 100]",7,10,"prior",-99,"compound","make the rocks dissolve","rare_deterministic","grinks",0.01,"rocks"
8,150586,"causals","animal make sleepy",0,"makes CATEGORY sleepy","[0, 0, 100, 100, 0, u'?', 0, 100, 0, 0, 100]",5,10,"prior",-99,"herb","make the animals sleepy","rare_deterministic","grinks",0,"animals"
8,150586,"causals","animal make sleepy",0,"makes CATEGORY sleepy","[0, 0, 100, 100, 0, u'?', 0, 100, 0, 0, 100]",5,10,"prior",-99,"herb","make the animals sleepy","rare_deterministic","grinks",0,"animals"
8,150586,"causals","animal make sleepy",0,"makes CATEGORY sleepy","[0, 0, 100, 100, 0, u'?', 0, 100, 0, 0, 100]",5,10,"prior",-99,"herb","make the animals sleepy","rare_deterministic","grinks",1,"animals"
8,150586,"causals","animal make sleepy",0,"makes CATEGORY sleepy","[0, 0, 100, 100, 0, u'?', 0, 100, 0, 0, 100]",5,10,"prior",-99,"herb","make the animals sleepy","rare_deterministic","grinks",0,"animals"
8,150586,"causals","animal make sleepy",0,"makes CATEGORY sleepy","[0, 0, 100, 100, 0, u'?', 0, 100, 0, 0, 100]",5,10,"prior",-99,"herb","make the animals sleepy","rare_deterministic","grinks",0,"animals"
9,264288,"causals","rocks dissolve",0,"makes CATEGORY dissolve","[75, 0, u'?', 65, 0, 80, 90, 0, 0, 80, 90]",2,10,"prior",-99,"compound","make the rocks dissolve","rare_strong","krivels",0.02,"rocks"
9,264288,"causals","rocks dissolve",0,"makes CATEGORY dissolve","[75, 0, u'?', 65, 0, 80, 90, 0, 0, 80, 90]",2,10,"prior",-99,"compound","make the rocks dissolve","rare_strong","krivels",0.77,"rocks"
9,264288,"causals","rocks dissolve",0,"makes CATEGORY dissolve","[75, 0, u'?', 65, 0, 80, 90, 0, 0, 80, 90]",2,10,"prior",-99,"compound","make the rocks dissolve","rare_strong","krivels",0.03,"rocks"
9,264288,"causals","rocks dissolve",0,"makes CATEGORY dissolve","[75, 0, u'?', 65, 0, 80, 90, 0, 0, 80, 90]",2,10,"prior",-99,"compound","make the rocks dissolve","rare_strong","krivels",0.68,"rocks"
9,264288,"causals","rocks dissolve",0,"makes CATEGORY dissolve","[75, 0, u'?', 65, 0, 80, 90, 0, 0, 80, 90]",2,10,"prior",-99,"compound","make the rocks dissolve","rare_strong","krivels",0.05,"rocks"
10,9733,"causals","rocks dissolve",0,"makes CATEGORY dissolve","[0, 0, 100, 100, 0, u'?', 0, 100, 0, 0, 100]",5,10,"prior",-99,"compound","make the rocks dissolve","rare_deterministic","mooks",0.49,"rocks"
10,9733,"causals","rocks dissolve",0,"makes CATEGORY dissolve","[0, 0, 100, 100, 0, u'?', 0, 100, 0, 0, 100]",5,10,"prior",-99,"compound","make the rocks dissolve","rare_deterministic","mooks",0.45,"rocks"
10,9733,"causals","rocks dissolve",0,"makes CATEGORY dissolve","[0, 0, 100, 100, 0, u'?', 0, 100, 0, 0, 100]",5,10,"prior",-99,"compound","make the rocks dissolve","rare_deterministic","mooks",0.36,"rocks"
10,9733,"causals","rocks dissolve",0,"makes CATEGORY dissolve","[0, 0, 100, 100, 0, u'?', 0, 100, 0, 0, 100]",5,10,"prior",-99,"compound","make the rocks dissolve","rare_deterministic","mooks",0.44,"rocks"
10,9733,"causals","rocks dissolve",0,"makes CATEGORY dissolve","[0, 0, 100, 100, 0, u'?', 0, 100, 0, 0, 100]",5,10,"prior",-99,"compound","make the rocks dissolve","rare_deterministic","mooks",0.44,"rocks"
11,49881,"causals","animal make sleepy",0,"makes CATEGORY sleepy","[0, 20, 0, 10, 0, u'?', 0, 15, 0, 20, 0]",5,10,"prior",-99,"herb","make the animals sleepy","rare_weak","kweps",0,"animals"
11,49881,"causals","animal make sleepy",0,"makes CATEGORY sleepy","[0, 20, 0, 10, 0, u'?', 0, 15, 0, 20, 0]",5,10,"prior",-99,"herb","make the animals sleepy","rare_weak","kweps",0.01,"animals"
11,49881,"causals","animal make sleepy",0,"makes CATEGORY sleepy","[0, 20, 0, 10, 0, u'?', 0, 15, 0, 20, 0]",5,10,"prior",-99,"herb","make the animals sleepy","rare_weak","kweps",0.01,"animals"
11,49881,"causals","animal make sleepy",0,"makes CATEGORY sleepy","[0, 20, 0, 10, 0, u'?', 0, 15, 0, 20, 0]",5,10,"prior",-99,"herb","make the animals sleepy","rare_weak","kweps",0.01,"animals"
11,49881,"causals","animal make sleepy",0,"makes CATEGORY sleepy","[0, 20, 0, 10, 0, u'?', 0, 15, 0, 20, 0]",5,10,"prior",-99,"herb","make the animals sleepy","rare_weak","kweps",0.09,"animals"
12,96833,"causals","plant grow indoors",0,"makes CATEGORY grow tall","[85, 75, 15, u'?', 75, 10, 90, 90, 80, 10, 20]",3,10,"prior",-99,"fertilizer","make the plants grow tall","weak_or_strong","taifels",0.11,"plants"
12,96833,"causals","plant grow indoors",0,"makes CATEGORY grow tall","[85, 75, 15, u'?', 75, 10, 90, 90, 80, 10, 20]",3,10,"prior",-99,"fertilizer","make the plants grow tall","weak_or_strong","taifels",0.74,"plants"
12,96833,"causals","plant grow indoors",0,"makes CATEGORY grow tall","[85, 75, 15, u'?', 75, 10, 90, 90, 80, 10, 20]",3,10,"prior",-99,"fertilizer","make the plants grow tall","weak_or_strong","taifels",0.73,"plants"
12,96833,"causals","plant grow indoors",0,"makes CATEGORY grow tall","[85, 75, 15, u'?', 75, 10, 90, 90, 80, 10, 20]",3,10,"prior",-99,"fertilizer","make the plants grow tall","weak_or_strong","taifels",0.83,"plants"
12,96833,"causals","plant grow indoors",0,"makes CATEGORY grow tall","[85, 75, 15, u'?', 75, 10, 90, 90, 80, 10, 20]",3,10,"prior",-99,"fertilizer","make the plants grow tall","weak_or_strong","taifels",0.21,"plants"
13,103748,"causals","animal make sleepy",0,"makes CATEGORY sleepy","[75, 65, 65, 75, u'?', 80, 90, 80, 75, 80, 90]",4,10,"prior",-99,"herb","make the animals sleepy","common_strong","lorches",0.64,"animals"
13,103748,"causals","animal make sleepy",0,"makes CATEGORY sleepy","[75, 65, 65, 75, u'?', 80, 90, 80, 75, 80, 90]",4,10,"prior",-99,"herb","make the animals sleepy","common_strong","lorches",0.71,"animals"
13,103748,"causals","animal make sleepy",0,"makes CATEGORY sleepy","[75, 65, 65, 75, u'?', 80, 90, 80, 75, 80, 90]",4,10,"prior",-99,"herb","make the animals sleepy","common_strong","lorches",0.6,"animals"
13,103748,"causals","animal make sleepy",0,"makes CATEGORY sleepy","[75, 65, 65, 75, u'?', 80, 90, 80, 75, 80, 90]",4,10,"prior",-99,"herb","make the animals sleepy","common_strong","lorches",0.83,"animals"
13,103748,"causals","animal make sleepy",0,"makes CATEGORY sleepy","[75, 65, 65, 75, u'?', 80, 90, 80, 75, 80, 90]",4,10,"prior",-99,"herb","make the animals sleepy","common_strong","lorches",0.73,"animals"
14,250560,"causals","plant grow indoors",0,"makes CATEGORY grow tall","[75, 0, 65, 0, 80, 90, 0, u'?', 0, 80, 90]",7,10,"prior",-99,"fertilizer","make the plants grow tall","rare_strong","elleps",0.84,"plants"
14,250560,"causals","plant grow indoors",0,"makes CATEGORY grow tall","[75, 0, 65, 0, 80, 90, 0, u'?', 0, 80, 90]",7,10,"prior",-99,"fertilizer","make the plants grow tall","rare_strong","elleps",0.7,"plants"
14,250560,"causals","plant grow indoors",0,"makes CATEGORY grow tall","[75, 0, 65, 0, 80, 90, 0, u'?', 0, 80, 90]",7,10,"prior",-99,"fertilizer","make the plants grow tall","rare_strong","elleps",0.01,"plants"
14,250560,"causals","plant grow indoors",0,"makes CATEGORY grow tall","[75, 0, 65, 0, 80, 90, 0, u'?', 0, 80, 90]",7,10,"prior",-99,"fertilizer","make the plants grow tall","rare_strong","elleps",0.64,"plants"
14,250560,"causals","plant grow indoors",0,"makes CATEGORY grow tall","[75, 0, 65, 0, 80, 90, 0, u'?', 0, 80, 90]",7,10,"prior",-99,"fertilizer","make the plants grow tall","rare_strong","elleps",0.01,"plants"
15,75688,"causals","animal make sleepy",0,"makes CATEGORY sleepy","[10, 20, 15, 10, 15, 20, u'?', 10, 10, 15, 20]",6,10,"prior",-99,"herb","make the animals sleepy","common_weak","ollers",0.18,"animals"
15,75688,"causals","animal make sleepy",0,"makes CATEGORY sleepy","[10, 20, 15, 10, 15, 20, u'?', 10, 10, 15, 20]",6,10,"prior",-99,"herb","make the animals sleepy","common_weak","ollers",0.28,"animals"
15,75688,"causals","animal make sleepy",0,"makes CATEGORY sleepy","[10, 20, 15, 10, 15, 20, u'?', 10, 10, 15, 20]",6,10,"prior",-99,"herb","make the animals sleepy","common_weak","ollers",0.18,"animals"
15,75688,"causals","animal make sleepy",0,"makes CATEGORY sleepy","[10, 20, 15, 10, 15, 20, u'?', 10, 10, 15, 20]",6,10,"prior",-99,"herb","make the animals sleepy","common_weak","ollers",0.29,"animals"
15,75688,"causals","animal make sleepy",0,"makes CATEGORY sleepy","[10, 20, 15, 10, 15, 20, u'?', 10, 10, 15, 20]",6,10,"prior",-99,"herb","make the animals sleepy","common_weak","ollers",0.2,"animals"
16,69490,"causals","rocks dissolve",0,"makes CATEGORY dissolve","[75, 65, 65, 75, 80, 90, 80, 75, u'?', 80, 90]",8,10,"prior",-99,"compound","make the rocks dissolve","common_strong","stups",0.46,"rocks"
16,69490,"causals","rocks dissolve",0,"makes CATEGORY dissolve","[75, 65, 65, 75, 80, 90, 80, 75, u'?', 80, 90]",8,10,"prior",-99,"compound","make the rocks dissolve","common_strong","stups",0.62,"rocks"
16,69490,"causals","rocks dissolve",0,"makes CATEGORY dissolve","[75, 65, 65, 75, 80, 90, 80, 75, u'?', 80, 90]",8,10,"prior",-99,"compound","make the rocks dissolve","common_strong","stups",0.78,"rocks"
16,69490,"causals","rocks dissolve",0,"makes CATEGORY dissolve","[75, 65, 65, 75, 80, 90, 80, 75, u'?', 80, 90]",8,10,"prior",-99,"compound","make the rocks dissolve","common_strong","stups",0.61,"rocks"
16,69490,"causals","rocks dissolve",0,"makes CATEGORY dissolve","[75, 65, 65, 75, 80, 90, 80, 75, u'?', 80, 90]",8,10,"prior",-99,"compound","make the rocks dissolve","common_strong","stups",0.68,"rocks"
17,135986,"causals","rocks dissolve",0,"makes CATEGORY dissolve","[10, 20, u'?', 15, 10, 15, 20, 10, 10, 15, 20]",2,10,"prior",-99,"compound","make the rocks dissolve","common_weak","javs",0.2,"rocks"
17,135986,"causals","rocks dissolve",0,"makes CATEGORY dissolve","[10, 20, u'?', 15, 10, 15, 20, 10, 10, 15, 20]",2,10,"prior",-99,"compound","make the rocks dissolve","common_weak","javs",0.22,"rocks"
17,135986,"causals","rocks dissolve",0,"makes CATEGORY dissolve","[10, 20, u'?', 15, 10, 15, 20, 10, 10, 15, 20]",2,10,"prior",-99,"compound","make the rocks dissolve","common_weak","javs",0.27,"rocks"
17,135986,"causals","rocks dissolve",0,"makes CATEGORY dissolve","[10, 20, u'?', 15, 10, 15, 20, 10, 10, 15, 20]",2,10,"prior",-99,"compound","make the rocks dissolve","common_weak","javs",0.32,"rocks"
17,135986,"causals","rocks dissolve",0,"makes CATEGORY dissolve","[10, 20, u'?', 15, 10, 15, 20, 10, 10, 15, 20]",2,10,"prior",-99,"compound","make the rocks dissolve","common_weak","javs",0.38,"rocks"
18,9586,"causals","plant grow indoors",0,"makes CATEGORY grow tall","[75, u'?', 0, 65, 0, 80, 90, 0, 0, 80, 90]",1,10,"prior",-99,"fertilizer","make the plants grow tall","rare_strong","reesles",0.38,"plants"
18,9586,"causals","plant grow indoors",0,"makes CATEGORY grow tall","[75, u'?', 0, 65, 0, 80, 90, 0, 0, 80, 90]",1,10,"prior",-99,"fertilizer","make the plants grow tall","rare_strong","reesles",0.45,"plants"
18,9586,"causals","plant grow indoors",0,"makes CATEGORY grow tall","[75, u'?', 0, 65, 0, 80, 90, 0, 0, 80, 90]",1,10,"prior",-99,"fertilizer","make the plants grow tall","rare_strong","reesles",0.36,"plants"
18,9586,"causals","plant grow indoors",0,"makes CATEGORY grow tall","[75, u'?', 0, 65, 0, 80, 90, 0, 0, 80, 90]",1,10,"prior",-99,"fertilizer","make the plants grow tall","rare_strong","reesles",0.38,"plants"
18,9586,"causals","plant grow indoors",0,"makes CATEGORY grow tall","[75, u'?', 0, 65, 0, 80, 90, 0, 0, 80, 90]",1,10,"prior",-99,"fertilizer","make the plants grow tall","rare_strong","reesles",0.47,"plants"
19,77849,"causals","animal make sleepy",0,"makes CATEGORY sleepy","[0, 0, 100, 100, 0, u'?', 0, 100, 0, 0, 100]",5,10,"prior",-99,"herb","make the animals sleepy","rare_deterministic","plovs",1,"animals"
19,77849,"causals","animal make sleepy",0,"makes CATEGORY sleepy","[0, 0, 100, 100, 0, u'?', 0, 100, 0, 0, 100]",5,10,"prior",-99,"herb","make the animals sleepy","rare_deterministic","plovs",0,"animals"
19,77849,"causals","animal make sleepy",0,"makes CATEGORY sleepy","[0, 0, 100, 100, 0, u'?', 0, 100, 0, 0, 100]",5,10,"prior",-99,"herb","make the animals sleepy","rare_deterministic","plovs",1,"animals"
19,77849,"causals","animal make sleepy",0,"makes CATEGORY sleepy","[0, 0, 100, 100, 0, u'?', 0, 100, 0, 0, 100]",5,10,"prior",-99,"herb","make the animals sleepy","rare_deterministic","plovs",0,"animals"
19,77849,"causals","animal make sleepy",0,"makes CATEGORY sleepy","[0, 0, 100, 100, 0, u'?', 0, 100, 0, 0, 100]",5,10,"prior",-99,"herb","make the animals sleepy","rare_deterministic","plovs",0,"animals"
20,8082,"causals","plant grow indoors",0,"makes CATEGORY grow tall","[10, 20, u'?', 15, 10, 15, 20, 10, 10, 15, 20]",2,10,"prior",-99,"fertilizer","make the plants grow tall","common_weak","zoovs",0.5,"plants"
20,8082,"causals","plant grow indoors",0,"makes CATEGORY grow tall","[10, 20, u'?', 15, 10, 15, 20, 10, 10, 15, 20]",2,10,"prior",-99,"fertilizer","make the plants grow tall","common_weak","zoovs",0.4,"plants"
20,8082,"causals","plant grow indoors",0,"makes CATEGORY grow tall","[10, 20, u'?', 15, 10, 15, 20, 10, 10, 15, 20]",2,10,"prior",-99,"fertilizer","make the plants grow tall","common_weak","zoovs",0.47,"plants"
20,8082,"causals","plant grow indoors",0,"makes CATEGORY grow tall","[10, 20, u'?', 15, 10, 15, 20, 10, 10, 15, 20]",2,10,"prior",-99,"fertilizer","make the plants grow tall","common_weak","zoovs",0.47,"plants"
20,8082,"causals","plant grow indoors",0,"makes CATEGORY grow tall","[10, 20, u'?', 15, 10, 15, 20, 10, 10, 15, 20]",2,10,"prior",-99,"fertilizer","make the plants grow tall","common_weak","zoovs",0.57,"plants"
21,116965,"causals","plant grow indoors",0,"makes CATEGORY grow tall","[0, 0, u'?', 100, 100, 0, 0, 100, 0, 0, 100]",2,10,"prior",-99,"fertilizer","make the plants grow tall","rare_deterministic","javs",0.19,"plants"
21,116965,"causals","plant grow indoors",0,"makes CATEGORY grow tall","[0, 0, u'?', 100, 100, 0, 0, 100, 0, 0, 100]",2,10,"prior",-99,"fertilizer","make the plants grow tall","rare_deterministic","javs",0.19,"plants"
21,116965,"causals","plant grow indoors",0,"makes CATEGORY grow tall","[0, 0, u'?', 100, 100, 0, 0, 100, 0, 0, 100]",2,10,"prior",-99,"fertilizer","make the plants grow tall","rare_deterministic","javs",0.19,"plants"
21,116965,"causals","plant grow indoors",0,"makes CATEGORY grow tall","[0, 0, u'?', 100, 100, 0, 0, 100, 0, 0, 100]",2,10,"prior",-99,"fertilizer","make the plants grow tall","rare_deterministic","javs",0.2,"plants"
21,116965,"causals","plant grow indoors",0,"makes CATEGORY grow tall","[0, 0, u'?', 100, 100, 0, 0, 100, 0, 0, 100]",2,10,"prior",-99,"fertilizer","make the plants grow tall","rare_deterministic","javs",0.2,"plants"
22,114220,"causals","rocks dissolve",0,"makes CATEGORY dissolve","[10, 20, 15, 10, 15, 20, u'?', 10, 10, 15, 20]",6,10,"prior",-99,"compound","make the rocks dissolve","common_weak","blins",0.15,"rocks"
22,114220,"causals","rocks dissolve",0,"makes CATEGORY dissolve","[10, 20, 15, 10, 15, 20, u'?', 10, 10, 15, 20]",6,10,"prior",-99,"compound","make the rocks dissolve","common_weak","blins",0.29,"rocks"
22,114220,"causals","rocks dissolve",0,"makes CATEGORY dissolve","[10, 20, 15, 10, 15, 20, u'?', 10, 10, 15, 20]",6,10,"prior",-99,"compound","make the rocks dissolve","common_weak","blins",0.43,"rocks"
22,114220,"causals","rocks dissolve",0,"makes CATEGORY dissolve","[10, 20, 15, 10, 15, 20, u'?', 10, 10, 15, 20]",6,10,"prior",-99,"compound","make the rocks dissolve","common_weak","blins",0.32,"rocks"
22,114220,"causals","rocks dissolve",0,"makes CATEGORY dissolve","[10, 20, 15, 10, 15, 20, u'?', 10, 10, 15, 20]",6,10,"prior",-99,"compound","make the rocks dissolve","common_weak","blins",0.31,"rocks"
23,60667,"causals","rocks dissolve",0,"makes CATEGORY dissolve","[0, u'?', 20, 0, 10, 0, 0, 15, 0, 20, 0]",1,10,"prior",-99,"compound","make the rocks dissolve","rare_weak","lorches",1,"rocks"
23,60667,"causals","rocks dissolve",0,"makes CATEGORY dissolve","[0, u'?', 20, 0, 10, 0, 0, 15, 0, 20, 0]",1,10,"prior",-99,"compound","make the rocks dissolve","rare_weak","lorches",0.63,"rocks"
23,60667,"causals","rocks dissolve",0,"makes CATEGORY dissolve","[0, u'?', 20, 0, 10, 0, 0, 15, 0, 20, 0]",1,10,"prior",-99,"compound","make the rocks dissolve","rare_weak","lorches",0.53,"rocks"
23,60667,"causals","rocks dissolve",0,"makes CATEGORY dissolve","[0, u'?', 20, 0, 10, 0, 0, 15, 0, 20, 0]",1,10,"prior",-99,"compound","make the rocks dissolve","rare_weak","lorches",1,"rocks"
23,60667,"causals","rocks dissolve",0,"makes CATEGORY dissolve","[0, u'?', 20, 0, 10, 0, 0, 15, 0, 20, 0]",1,10,"prior",-99,"compound","make the rocks dissolve","rare_weak","lorches",0.44,"rocks"
24,50453,"causals","plant grow indoors",0,"makes CATEGORY grow tall","[85, 75, 15, 75, 10, 90, 90, u'?', 80, 10, 20]",7,10,"prior",-99,"fertilizer","make the plants grow tall","weak_or_strong","pangolins",0.19,"plants"
24,50453,"causals","plant grow indoors",0,"makes CATEGORY grow tall","[85, 75, 15, 75, 10, 90, 90, u'?', 80, 10, 20]",7,10,"prior",-99,"fertilizer","make the plants grow tall","weak_or_strong","pangolins",0.29,"plants"
24,50453,"causals","plant grow indoors",0,"makes CATEGORY grow tall","[85, 75, 15, 75, 10, 90, 90, u'?', 80, 10, 20]",7,10,"prior",-99,"fertilizer","make the plants grow tall","weak_or_strong","pangolins",0.23,"plants"
24,50453,"causals","plant grow indoors",0,"makes CATEGORY grow tall","[85, 75, 15, 75, 10, 90, 90, u'?', 80, 10, 20]",7,10,"prior",-99,"fertilizer","make the plants grow tall","weak_or_strong","pangolins",0.19,"plants"
24,50453,"causals","plant grow indoors",0,"makes CATEGORY grow tall","[85, 75, 15, 75, 10, 90, 90, u'?', 80, 10, 20]",7,10,"prior",-99,"fertilizer","make the plants grow tall","weak_or_strong","pangolins",0.28,"plants"
25,209642,"causals","rocks dissolve",0,"makes CATEGORY dissolve","[10, 20, 15, u'?', 10, 15, 20, 10, 10, 15, 20]",3,10,"prior",-99,"compound","make the rocks dissolve","common_weak","taifels",0.2,"rocks"
25,209642,"causals","rocks dissolve",0,"makes CATEGORY dissolve","[10, 20, 15, u'?', 10, 15, 20, 10, 10, 15, 20]",3,10,"prior",-99,"compound","make the rocks dissolve","common_weak","taifels",0.2,"rocks"
25,209642,"causals","rocks dissolve",0,"makes CATEGORY dissolve","[10, 20, 15, u'?', 10, 15, 20, 10, 10, 15, 20]",3,10,"prior",-99,"compound","make the rocks dissolve","common_weak","taifels",0.2,"rocks"
25,209642,"causals","rocks dissolve",0,"makes CATEGORY dissolve","[10, 20, 15, u'?', 10, 15, 20, 10, 10, 15, 20]",3,10,"prior",-99,"compound","make the rocks dissolve","common_weak","taifels",0.2,"rocks"
25,209642,"causals","rocks dissolve",0,"makes CATEGORY dissolve","[10, 20, 15, u'?', 10, 15, 20, 10, 10, 15, 20]",3,10,"prior",-99,"compound","make the rocks dissolve","common_weak","taifels",0.2,"rocks"
26,56123,"causals","rocks dissolve",0,"makes CATEGORY dissolve","[75, 0, 65, 0, 80, u'?', 90, 0, 0, 80, 90]",5,10,"prior",-99,"compound","make the rocks dissolve","rare_strong","frams",0.72,"rocks"
26,56123,"causals","rocks dissolve",0,"makes CATEGORY dissolve","[75, 0, 65, 0, 80, u'?', 90, 0, 0, 80, 90]",5,10,"prior",-99,"compound","make the rocks dissolve","rare_strong","frams",0,"rocks"
26,56123,"causals","rocks dissolve",0,"makes CATEGORY dissolve","[75, 0, 65, 0, 80, u'?', 90, 0, 0, 80, 90]",5,10,"prior",-99,"compound","make the rocks dissolve","rare_strong","frams",0.66,"rocks"
26,56123,"causals","rocks dissolve",0,"makes CATEGORY dissolve","[75, 0, 65, 0, 80, u'?', 90, 0, 0, 80, 90]",5,10,"prior",-99,"compound","make the rocks dissolve","rare_strong","frams",0,"rocks"
26,56123,"causals","rocks dissolve",0,"makes CATEGORY dissolve","[75, 0, 65, 0, 80, u'?', 90, 0, 0, 80, 90]",5,10,"prior",-99,"compound","make the rocks dissolve","rare_strong","frams",0.72,"rocks"
27,62264,"causals","rocks dissolve",0,"makes CATEGORY dissolve","[75, 65, 65, 75, u'?', 80, 90, 80, 75, 80, 90]",4,10,"prior",-99,"compound","make the rocks dissolve","common_strong","elleps",0.89,"rocks"
27,62264,"causals","rocks dissolve",0,"makes CATEGORY dissolve","[75, 65, 65, 75, u'?', 80, 90, 80, 75, 80, 90]",4,10,"prior",-99,"compound","make the rocks dissolve","common_strong","elleps",0.92,"rocks"
27,62264,"causals","rocks dissolve",0,"makes CATEGORY dissolve","[75, 65, 65, 75, u'?', 80, 90, 80, 75, 80, 90]",4,10,"prior",-99,"compound","make the rocks dissolve","common_strong","elleps",0.9,"rocks"
27,62264,"causals","rocks dissolve",0,"makes CATEGORY dissolve","[75, 65, 65, 75, u'?', 80, 90, 80, 75, 80, 90]",4,10,"prior",-99,"compound","make the rocks dissolve","common_strong","elleps",0.9,"rocks"
27,62264,"causals","rocks dissolve",0,"makes CATEGORY dissolve","[75, 65, 65, 75, u'?', 80, 90, 80, 75, 80, 90]",4,10,"prior",-99,"compound","make the rocks dissolve","common_strong","elleps",0.93,"rocks"
28,152812,"causals","animal make sleepy",0,"makes CATEGORY sleepy","[10, 20, 15, u'?', 10, 15, 20, 10, 10, 15, 20]",3,10,"prior",-99,"herb","make the animals sleepy","common_weak","luzaks",0.12,"animals"
28,152812,"causals","animal make sleepy",0,"makes CATEGORY sleepy","[10, 20, 15, u'?', 10, 15, 20, 10, 10, 15, 20]",3,10,"prior",-99,"herb","make the animals sleepy","common_weak","luzaks",0.08,"animals"
28,152812,"causals","animal make sleepy",0,"makes CATEGORY sleepy","[10, 20, 15, u'?', 10, 15, 20, 10, 10, 15, 20]",3,10,"prior",-99,"herb","make the animals sleepy","common_weak","luzaks",0.19,"animals"
28,152812,"causals","animal make sleepy",0,"makes CATEGORY sleepy","[10, 20, 15, u'?', 10, 15, 20, 10, 10, 15, 20]",3,10,"prior",-99,"herb","make the animals sleepy","common_weak","luzaks",0.12,"animals"
28,152812,"causals","animal make sleepy",0,"makes CATEGORY sleepy","[10, 20, 15, u'?', 10, 15, 20, 10, 10, 15, 20]",3,10,"prior",-99,"herb","make the animals sleepy","common_weak","luzaks",0.12,"animals"
29,144112,"causals","animal make sleepy",0,"makes CATEGORY sleepy","[75, 65, 65, 75, 80, 90, 80, u'?', 75, 80, 90]",7,10,"prior",-99,"herb","make the animals sleepy","common_strong","dorbs",0.63,"animals"
29,144112,"causals","animal make sleepy",0,"makes CATEGORY sleepy","[75, 65, 65, 75, 80, 90, 80, u'?', 75, 80, 90]",7,10,"prior",-99,"herb","make the animals sleepy","common_strong","dorbs",0.77,"animals"
29,144112,"causals","animal make sleepy",0,"makes CATEGORY sleepy","[75, 65, 65, 75, 80, 90, 80, u'?', 75, 80, 90]",7,10,"prior",-99,"herb","make the animals sleepy","common_strong","dorbs",0.64,"animals"
29,144112,"causals","animal make sleepy",0,"makes CATEGORY sleepy","[75, 65, 65, 75, 80, 90, 80, u'?', 75, 80, 90]",7,10,"prior",-99,"herb","make the animals sleepy","common_strong","dorbs",0.86,"animals"
29,144112,"causals","animal make sleepy",0,"makes CATEGORY sleepy","[75, 65, 65, 75, 80, 90, 80, u'?', 75, 80, 90]",7,10,"prior",-99,"herb","make the animals sleepy","common_strong","dorbs",0.93,"animals"
30,118123,"causals","animal make sleepy",0,"makes CATEGORY sleepy","[10, 20, 15, 10, u'?', 15, 20, 10, 10, 15, 20]",4,10,"prior",-99,"herb","make the animals sleepy","common_weak","thups",0.14,"animals"
30,118123,"causals","animal make sleepy",0,"makes CATEGORY sleepy","[10, 20, 15, 10, u'?', 15, 20, 10, 10, 15, 20]",4,10,"prior",-99,"herb","make the animals sleepy","common_weak","thups",0.09,"animals"
30,118123,"causals","animal make sleepy",0,"makes CATEGORY sleepy","[10, 20, 15, 10, u'?', 15, 20, 10, 10, 15, 20]",4,10,"prior",-99,"herb","make the animals sleepy","common_weak","thups",0.09,"animals"
30,118123,"causals","animal make sleepy",0,"makes CATEGORY sleepy","[10, 20, 15, 10, u'?', 15, 20, 10, 10, 15, 20]",4,10,"prior",-99,"herb","make the animals sleepy","common_weak","thups",0.21,"animals"
30,118123,"causals","animal make sleepy",0,"makes CATEGORY sleepy","[10, 20, 15, 10, u'?', 15, 20, 10, 10, 15, 20]",4,10,"prior",-99,"herb","make the animals sleepy","common_weak","thups",0.11,"animals"
31,152526,"causals","plant grow indoors",0,"makes CATEGORY grow tall","[75, 0, u'?', 65, 0, 80, 90, 0, 0, 80, 90]",2,10,"prior",-99,"fertilizer","make the plants grow tall","rare_strong","taifels",0.55,"plants"
31,152526,"causals","plant grow indoors",0,"makes CATEGORY grow tall","[75, 0, u'?', 65, 0, 80, 90, 0, 0, 80, 90]",2,10,"prior",-99,"fertilizer","make the plants grow tall","rare_strong","taifels",0,"plants"
31,152526,"causals","plant grow indoors",0,"makes CATEGORY grow tall","[75, 0, u'?', 65, 0, 80, 90, 0, 0, 80, 90]",2,10,"prior",-99,"fertilizer","make the plants grow tall","rare_strong","taifels",0.55,"plants"
31,152526,"causals","plant grow indoors",0,"makes CATEGORY grow tall","[75, 0, u'?', 65, 0, 80, 90, 0, 0, 80, 90]",2,10,"prior",-99,"fertilizer","make the plants grow tall","rare_strong","taifels",0.69,"plants"
31,152526,"causals","plant grow indoors",0,"makes CATEGORY grow tall","[75, 0, u'?', 65, 0, 80, 90, 0, 0, 80, 90]",2,10,"prior",-99,"fertilizer","make the plants grow tall","rare_strong","taifels",0,"plants"
32,72971,"causals","animal make sleepy",0,"makes CATEGORY sleepy","[10, 20, u'?', 15, 10, 15, 20, 10, 10, 15, 20]",2,10,"prior",-99,"herb","make the animals sleepy","common_weak","moxes",0.14,"animals"
32,72971,"causals","animal make sleepy",0,"makes CATEGORY sleepy","[10, 20, u'?', 15, 10, 15, 20, 10, 10, 15, 20]",2,10,"prior",-99,"herb","make the animals sleepy","common_weak","moxes",0.14,"animals"
32,72971,"causals","animal make sleepy",0,"makes CATEGORY sleepy","[10, 20, u'?', 15, 10, 15, 20, 10, 10, 15, 20]",2,10,"prior",-99,"herb","make the animals sleepy","common_weak","moxes",0.28,"animals"
32,72971,"causals","animal make sleepy",0,"makes CATEGORY sleepy","[10, 20, u'?', 15, 10, 15, 20, 10, 10, 15, 20]",2,10,"prior",-99,"herb","make the animals sleepy","common_weak","moxes",0.19,"animals"
32,72971,"causals","animal make sleepy",0,"makes CATEGORY sleepy","[10, 20, u'?', 15, 10, 15, 20, 10, 10, 15, 20]",2,10,"prior",-99,"herb","make the animals sleepy","common_weak","moxes",0.36,"animals"
33,141405,"causals","plant grow indoors",0,"makes CATEGORY grow tall","[75, 0, 65, 0, 80, 90, 0, 0, u'?', 80, 90]",8,10,"prior",-99,"fertilizer","make the plants grow tall","rare_strong","zorbs",0.02,"plants"
33,141405,"causals","plant grow indoors",0,"makes CATEGORY grow tall","[75, 0, 65, 0, 80, 90, 0, 0, u'?', 80, 90]",8,10,"prior",-99,"fertilizer","make the plants grow tall","rare_strong","zorbs",0.66,"plants"
33,141405,"causals","plant grow indoors",0,"makes CATEGORY grow tall","[75, 0, 65, 0, 80, 90, 0, 0, u'?', 80, 90]",8,10,"prior",-99,"fertilizer","make the plants grow tall","rare_strong","zorbs",0.81,"plants"
33,141405,"causals","plant grow indoors",0,"makes CATEGORY grow tall","[75, 0, 65, 0, 80, 90, 0, 0, u'?', 80, 90]",8,10,"prior",-99,"fertilizer","make the plants grow tall","rare_strong","zorbs",0.89,"plants"
33,141405,"causals","plant grow indoors",0,"makes CATEGORY grow tall","[75, 0, 65, 0, 80, 90, 0, 0, u'?', 80, 90]",8,10,"prior",-99,"fertilizer","make the plants grow tall","rare_strong","zorbs",0.02,"plants"
34,56581,"causals","animal make sleepy",0,"makes CATEGORY sleepy","[10, 20, 15, 10, 15, u'?', 20, 10, 10, 15, 20]",5,10,"prior",-99,"herb","make the animals sleepy","common_weak","frams",0.08,"animals"
34,56581,"causals","animal make sleepy",0,"makes CATEGORY sleepy","[10, 20, 15, 10, 15, u'?', 20, 10, 10, 15, 20]",5,10,"prior",-99,"herb","make the animals sleepy","common_weak","frams",0.04,"animals"
34,56581,"causals","animal make sleepy",0,"makes CATEGORY sleepy","[10, 20, 15, 10, 15, u'?', 20, 10, 10, 15, 20]",5,10,"prior",-99,"herb","make the animals sleepy","common_weak","frams",0.08,"animals"
34,56581,"causals","animal make sleepy",0,"makes CATEGORY sleepy","[10, 20, 15, 10, 15, u'?', 20, 10, 10, 15, 20]",5,10,"prior",-99,"herb","make the animals sleepy","common_weak","frams",0.14,"animals"
34,56581,"causals","animal make sleepy",0,"makes CATEGORY sleepy","[10, 20, 15, 10, 15, u'?', 20, 10, 10, 15, 20]",5,10,"prior",-99,"herb","make the animals sleepy","common_weak","frams",0.08,"animals"
35,196898,"causals","rocks dissolve",0,"makes CATEGORY dissolve","[75, 65, 65, 75, 80, 90, 80, 75, u'?', 80, 90]",8,10,"prior",-99,"compound","make the rocks dissolve","common_strong","plovs",0.73,"rocks"
35,196898,"causals","rocks dissolve",0,"makes CATEGORY dissolve","[75, 65, 65, 75, 80, 90, 80, 75, u'?', 80, 90]",8,10,"prior",-99,"compound","make the rocks dissolve","common_strong","plovs",0.85,"rocks"
35,196898,"causals","rocks dissolve",0,"makes CATEGORY dissolve","[75, 65, 65, 75, 80, 90, 80, 75, u'?', 80, 90]",8,10,"prior",-99,"compound","make the rocks dissolve","common_strong","plovs",0.68,"rocks"
35,196898,"causals","rocks dissolve",0,"makes CATEGORY dissolve","[75, 65, 65, 75, 80, 90, 80, 75, u'?', 80, 90]",8,10,"prior",-99,"compound","make the rocks dissolve","common_strong","plovs",0.77,"rocks"
35,196898,"causals","rocks dissolve",0,"makes CATEGORY dissolve","[75, 65, 65, 75, 80, 90, 80, 75, u'?', 80, 90]",8,10,"prior",-99,"compound","make the rocks dissolve","common_strong","plovs",0.68,"rocks"
36,261833,"causals","rocks dissolve",0,"makes CATEGORY dissolve","[0, 20, u'?', 0, 10, 0, 0, 15, 0, 20, 0]",2,10,"prior",-99,"compound","make the rocks dissolve","rare_weak","blins",0.07,"rocks"
36,261833,"causals","rocks dissolve",0,"makes CATEGORY dissolve","[0, 20, u'?', 0, 10, 0, 0, 15, 0, 20, 0]",2,10,"prior",-99,"compound","make the rocks dissolve","rare_weak","blins",0,"rocks"
36,261833,"causals","rocks dissolve",0,"makes CATEGORY dissolve","[0, 20, u'?', 0, 10, 0, 0, 15, 0, 20, 0]",2,10,"prior",-99,"compound","make the rocks dissolve","rare_weak","blins",0,"rocks"
36,261833,"causals","rocks dissolve",0,"makes CATEGORY dissolve","[0, 20, u'?', 0, 10, 0, 0, 15, 0, 20, 0]",2,10,"prior",-99,"compound","make the rocks dissolve","rare_weak","blins",0.14,"rocks"
36,261833,"causals","rocks dissolve",0,"makes CATEGORY dissolve","[0, 20, u'?', 0, 10, 0, 0, 15, 0, 20, 0]",2,10,"prior",-99,"compound","make the rocks dissolve","rare_weak","blins",0.23,"rocks"
37,109396,"causals","plant grow indoors",0,"makes CATEGORY grow tall","[85, 75, 15, 75, 10, 90, 90, 80, u'?', 10, 20]",8,10,"prior",-99,"fertilizer","make the plants grow tall","weak_or_strong","feps",0.54,"plants"
37,109396,"causals","plant grow indoors",0,"makes CATEGORY grow tall","[85, 75, 15, 75, 10, 90, 90, 80, u'?', 10, 20]",8,10,"prior",-99,"fertilizer","make the plants grow tall","weak_or_strong","feps",0.54,"plants"
37,109396,"causals","plant grow indoors",0,"makes CATEGORY grow tall","[85, 75, 15, 75, 10, 90, 90, 80, u'?', 10, 20]",8,10,"prior",-99,"fertilizer","make the plants grow tall","weak_or_strong","feps",0.54,"plants"
37,109396,"causals","plant grow indoors",0,"makes CATEGORY grow tall","[85, 75, 15, 75, 10, 90, 90, 80, u'?', 10, 20]",8,10,"prior",-99,"fertilizer","make the plants grow tall","weak_or_strong","feps",0.54,"plants"
37,109396,"causals","plant grow indoors",0,"makes CATEGORY grow tall","[85, 75, 15, 75, 10, 90, 90, 80, u'?', 10, 20]",8,10,"prior",-99,"fertilizer","make the plants grow tall","weak_or_strong","feps",0.54,"plants"
38,160871,"causals","rocks dissolve",0,"makes CATEGORY dissolve","[85, 75, 15, u'?', 75, 10, 90, 90, 80, 10, 20]",3,10,"prior",-99,"compound","make the rocks dissolve","weak_or_strong","crullets",0.88,"rocks"
38,160871,"causals","rocks dissolve",0,"makes CATEGORY dissolve","[85, 75, 15, u'?', 75, 10, 90, 90, 80, 10, 20]",3,10,"prior",-99,"compound","make the rocks dissolve","weak_or_strong","crullets",0.18,"rocks"
38,160871,"causals","rocks dissolve",0,"makes CATEGORY dissolve","[85, 75, 15, u'?', 75, 10, 90, 90, 80, 10, 20]",3,10,"prior",-99,"compound","make the rocks dissolve","weak_or_strong","crullets",0.08,"rocks"
38,160871,"causals","rocks dissolve",0,"makes CATEGORY dissolve","[85, 75, 15, u'?', 75, 10, 90, 90, 80, 10, 20]",3,10,"prior",-99,"compound","make the rocks dissolve","weak_or_strong","crullets",0.4,"rocks"
38,160871,"causals","rocks dissolve",0,"makes CATEGORY dissolve","[85, 75, 15, u'?', 75, 10, 90, 90, 80, 10, 20]",3,10,"prior",-99,"compound","make the rocks dissolve","weak_or_strong","crullets",0.86,"rocks"
39,148397,"causals","rocks dissolve",0,"makes CATEGORY dissolve","[75, 0, 65, 0, 80, u'?', 90, 0, 0, 80, 90]",5,10,"prior",-99,"compound","make the rocks dissolve","rare_strong","daiths",0.01,"rocks"
39,148397,"causals","rocks dissolve",0,"makes CATEGORY dissolve","[75, 0, 65, 0, 80, u'?', 90, 0, 0, 80, 90]",5,10,"prior",-99,"compound","make the rocks dissolve","rare_strong","daiths",0,"rocks"
39,148397,"causals","rocks dissolve",0,"makes CATEGORY dissolve","[75, 0, 65, 0, 80, u'?', 90, 0, 0, 80, 90]",5,10,"prior",-99,"compound","make the rocks dissolve","rare_strong","daiths",0.59,"rocks"
39,148397,"causals","rocks dissolve",0,"makes CATEGORY dissolve","[75, 0, 65, 0, 80, u'?', 90, 0, 0, 80, 90]",5,10,"prior",-99,"compound","make the rocks dissolve","rare_strong","daiths",0.68,"rocks"
39,148397,"causals","rocks dissolve",0,"makes CATEGORY dissolve","[75, 0, 65, 0, 80, u'?', 90, 0, 0, 80, 90]",5,10,"prior",-99,"compound","make the rocks dissolve","rare_strong","daiths",0.75,"rocks"
40,127942,"causals","animal make sleepy",0,"makes CATEGORY sleepy","[75, 65, 65, 75, 80, 90, 80, u'?', 75, 80, 90]",7,10,"prior",-99,"herb","make the animals sleepy","common_strong","lorches",0.86,"animals"
40,127942,"causals","animal make sleepy",0,"makes CATEGORY sleepy","[75, 65, 65, 75, 80, 90, 80, u'?', 75, 80, 90]",7,10,"prior",-99,"herb","make the animals sleepy","common_strong","lorches",0.8,"animals"
40,127942,"causals","animal make sleepy",0,"makes CATEGORY sleepy","[75, 65, 65, 75, 80, 90, 80, u'?', 75, 80, 90]",7,10,"prior",-99,"herb","make the animals sleepy","common_strong","lorches",0.86,"animals"
40,127942,"causals","animal make sleepy",0,"makes CATEGORY sleepy","[75, 65, 65, 75, 80, 90, 80, u'?', 75, 80, 90]",7,10,"prior",-99,"herb","make the animals sleepy","common_strong","lorches",0.8,"animals"
40,127942,"causals","animal make sleepy",0,"makes CATEGORY sleepy","[75, 65, 65, 75, 80, 90, 80, u'?', 75, 80, 90]",7,10,"prior",-99,"herb","make the animals sleepy","common_strong","lorches",0.91,"animals"
41,105718,"causals","rocks dissolve",0,"makes CATEGORY dissolve","[85, 75, 15, 75, 10, 90, u'?', 90, 80, 10, 20]",6,10,"prior",-99,"compound","make the rocks dissolve","weak_or_strong","moxes",0.73,"rocks"
41,105718,"causals","rocks dissolve",0,"makes CATEGORY dissolve","[85, 75, 15, 75, 10, 90, u'?', 90, 80, 10, 20]",6,10,"prior",-99,"compound","make the rocks dissolve","weak_or_strong","moxes",0.58,"rocks"
41,105718,"causals","rocks dissolve",0,"makes CATEGORY dissolve","[85, 75, 15, 75, 10, 90, u'?', 90, 80, 10, 20]",6,10,"prior",-99,"compound","make the rocks dissolve","weak_or_strong","moxes",0.48,"rocks"
41,105718,"causals","rocks dissolve",0,"makes CATEGORY dissolve","[85, 75, 15, 75, 10, 90, u'?', 90, 80, 10, 20]",6,10,"prior",-99,"compound","make the rocks dissolve","weak_or_strong","moxes",0.31,"rocks"
41,105718,"causals","rocks dissolve",0,"makes CATEGORY dissolve","[85, 75, 15, 75, 10, 90, u'?', 90, 80, 10, 20]",6,10,"prior",-99,"compound","make the rocks dissolve","weak_or_strong","moxes",0.51,"rocks"
42,188405,"causals","plant grow indoors",0,"makes CATEGORY grow tall","[85, 75, 15, u'?', 75, 10, 90, 90, 80, 10, 20]",3,10,"prior",-99,"fertilizer","make the plants grow tall","weak_or_strong","javs",0.75,"plants"
42,188405,"causals","plant grow indoors",0,"makes CATEGORY grow tall","[85, 75, 15, u'?', 75, 10, 90, 90, 80, 10, 20]",3,10,"prior",-99,"fertilizer","make the plants grow tall","weak_or_strong","javs",0.66,"plants"
42,188405,"causals","plant grow indoors",0,"makes CATEGORY grow tall","[85, 75, 15, u'?', 75, 10, 90, 90, 80, 10, 20]",3,10,"prior",-99,"fertilizer","make the plants grow tall","weak_or_strong","javs",0.1,"plants"
42,188405,"causals","plant grow indoors",0,"makes CATEGORY grow tall","[85, 75, 15, u'?', 75, 10, 90, 90, 80, 10, 20]",3,10,"prior",-99,"fertilizer","make the plants grow tall","weak_or_strong","javs",0.88,"plants"
42,188405,"causals","plant grow indoors",0,"makes CATEGORY grow tall","[85, 75, 15, u'?', 75, 10, 90, 90, 80, 10, 20]",3,10,"prior",-99,"fertilizer","make the plants grow tall","weak_or_strong","javs",0.75,"plants"
43,70383,"causals","plant grow indoors",0,"makes CATEGORY grow tall","[10, 20, 15, 10, 15, 20, u'?', 10, 10, 15, 20]",6,10,"prior",-99,"fertilizer","make the plants grow tall","common_weak","ackles",0.2,"plants"
43,70383,"causals","plant grow indoors",0,"makes CATEGORY grow tall","[10, 20, 15, 10, 15, 20, u'?', 10, 10, 15, 20]",6,10,"prior",-99,"fertilizer","make the plants grow tall","common_weak","ackles",0.34,"plants"
43,70383,"causals","plant grow indoors",0,"makes CATEGORY grow tall","[10, 20, 15, 10, 15, 20, u'?', 10, 10, 15, 20]",6,10,"prior",-99,"fertilizer","make the plants grow tall","common_weak","ackles",0.2,"plants"
43,70383,"causals","plant grow indoors",0,"makes CATEGORY grow tall","[10, 20, 15, 10, 15, 20, u'?', 10, 10, 15, 20]",6,10,"prior",-99,"fertilizer","make the plants grow tall","common_weak","ackles",0.2,"plants"
43,70383,"causals","plant grow indoors",0,"makes CATEGORY grow tall","[10, 20, 15, 10, 15, 20, u'?', 10, 10, 15, 20]",6,10,"prior",-99,"fertilizer","make the plants grow tall","common_weak","ackles",0.13,"plants"
44,77682,"causals","plant grow indoors",0,"makes CATEGORY grow tall","[75, u'?', 65, 65, 75, 80, 90, 80, 75, 80, 90]",1,10,"prior",-99,"fertilizer","make the plants grow tall","common_strong","crullets",0.8,"plants"
44,77682,"causals","plant grow indoors",0,"makes CATEGORY grow tall","[75, u'?', 65, 65, 75, 80, 90, 80, 75, 80, 90]",1,10,"prior",-99,"fertilizer","make the plants grow tall","common_strong","crullets",0.88,"plants"
44,77682,"causals","plant grow indoors",0,"makes CATEGORY grow tall","[75, u'?', 65, 65, 75, 80, 90, 80, 75, 80, 90]",1,10,"prior",-99,"fertilizer","make the plants grow tall","common_strong","crullets",0.8,"plants"
44,77682,"causals","plant grow indoors",0,"makes CATEGORY grow tall","[75, u'?', 65, 65, 75, 80, 90, 80, 75, 80, 90]",1,10,"prior",-99,"fertilizer","make the plants grow tall","common_strong","crullets",0.84,"plants"
44,77682,"causals","plant grow indoors",0,"makes CATEGORY grow tall","[75, u'?', 65, 65, 75, 80, 90, 80, 75, 80, 90]",1,10,"prior",-99,"fertilizer","make the plants grow tall","common_strong","crullets",0.87,"plants"
45,241739,"causals","rocks dissolve",0,"makes CATEGORY dissolve","[75, 65, 65, u'?', 75, 80, 90, 80, 75, 80, 90]",3,10,"prior",-99,"compound","make the rocks dissolve","common_strong","zoovs",0.72,"rocks"
45,241739,"causals","rocks dissolve",0,"makes CATEGORY dissolve","[75, 65, 65, u'?', 75, 80, 90, 80, 75, 80, 90]",3,10,"prior",-99,"compound","make the rocks dissolve","common_strong","zoovs",0.66,"rocks"
45,241739,"causals","rocks dissolve",0,"makes CATEGORY dissolve","[75, 65, 65, u'?', 75, 80, 90, 80, 75, 80, 90]",3,10,"prior",-99,"compound","make the rocks dissolve","common_strong","zoovs",0.64,"rocks"
45,241739,"causals","rocks dissolve",0,"makes CATEGORY dissolve","[75, 65, 65, u'?', 75, 80, 90, 80, 75, 80, 90]",3,10,"prior",-99,"compound","make the rocks dissolve","common_strong","zoovs",0.77,"rocks"
45,241739,"causals","rocks dissolve",0,"makes CATEGORY dissolve","[75, 65, 65, u'?', 75, 80, 90, 80, 75, 80, 90]",3,10,"prior",-99,"compound","make the rocks dissolve","common_strong","zoovs",0.85,"rocks"
46,87099,"causals","rocks dissolve",0,"makes CATEGORY dissolve","[0, 20, 0, 10, 0, 0, u'?', 15, 0, 20, 0]",6,10,"prior",-99,"compound","make the rocks dissolve","rare_weak","morseths",0.05,"rocks"
46,87099,"causals","rocks dissolve",0,"makes CATEGORY dissolve","[0, 20, 0, 10, 0, 0, u'?', 15, 0, 20, 0]",6,10,"prior",-99,"compound","make the rocks dissolve","rare_weak","morseths",0.04,"rocks"
46,87099,"causals","rocks dissolve",0,"makes CATEGORY dissolve","[0, 20, 0, 10, 0, 0, u'?', 15, 0, 20, 0]",6,10,"prior",-99,"compound","make the rocks dissolve","rare_weak","morseths",0.02,"rocks"
46,87099,"causals","rocks dissolve",0,"makes CATEGORY dissolve","[0, 20, 0, 10, 0, 0, u'?', 15, 0, 20, 0]",6,10,"prior",-99,"compound","make the rocks dissolve","rare_weak","morseths",0.02,"rocks"
46,87099,"causals","rocks dissolve",0,"makes CATEGORY dissolve","[0, 20, 0, 10, 0, 0, u'?', 15, 0, 20, 0]",6,10,"prior",-99,"compound","make the rocks dissolve","rare_weak","morseths",0.14,"rocks"
47,41498,"causals","animal make sleepy",0,"makes CATEGORY sleepy","[0, 20, 0, 10, u'?', 0, 0, 15, 0, 20, 0]",4,10,"prior",-99,"herb","make the animals sleepy","rare_weak","glippets",0.61,"animals"
47,41498,"causals","animal make sleepy",0,"makes CATEGORY sleepy","[0, 20, 0, 10, u'?', 0, 0, 15, 0, 20, 0]",4,10,"prior",-99,"herb","make the animals sleepy","rare_weak","glippets",1,"animals"
47,41498,"causals","animal make sleepy",0,"makes CATEGORY sleepy","[0, 20, 0, 10, u'?', 0, 0, 15, 0, 20, 0]",4,10,"prior",-99,"herb","make the animals sleepy","rare_weak","glippets",0.73,"animals"
47,41498,"causals","animal make sleepy",0,"makes CATEGORY sleepy","[0, 20, 0, 10, u'?', 0, 0, 15, 0, 20, 0]",4,10,"prior",-99,"herb","make the animals sleepy","rare_weak","glippets",0.55,"animals"
47,41498,"causals","animal make sleepy",0,"makes CATEGORY sleepy","[0, 20, 0, 10, u'?', 0, 0, 15, 0, 20, 0]",4,10,"prior",-99,"herb","make the animals sleepy","rare_weak","glippets",0.42,"animals"
48,102016,"causals","animal make sleepy",0,"makes CATEGORY sleepy","[75, 0, 65, 0, 80, 90, 0, u'?', 0, 80, 90]",7,10,"prior",-99,"herb","make the animals sleepy","rare_strong","mooks",0,"animals"
48,102016,"causals","animal make sleepy",0,"makes CATEGORY sleepy","[75, 0, 65, 0, 80, 90, 0, u'?', 0, 80, 90]",7,10,"prior",-99,"herb","make the animals sleepy","rare_strong","mooks",0.81,"animals"
48,102016,"causals","animal make sleepy",0,"makes CATEGORY sleepy","[75, 0, 65, 0, 80, 90, 0, u'?', 0, 80, 90]",7,10,"prior",-99,"herb","make the animals sleepy","rare_strong","mooks",0.81,"animals"
48,102016,"causals","animal make sleepy",0,"makes CATEGORY sleepy","[75, 0, 65, 0, 80, 90, 0, u'?', 0, 80, 90]",7,10,"prior",-99,"herb","make the animals sleepy","rare_strong","mooks",0.87,"animals"
48,102016,"causals","animal make sleepy",0,"makes CATEGORY sleepy","[75, 0, 65, 0, 80, 90, 0, u'?', 0, 80, 90]",7,10,"prior",-99,"herb","make the animals sleepy","rare_strong","mooks",0,"animals"
49,56376,"causals","rocks dissolve",0,"makes CATEGORY dissolve","[0, 20, 0, u'?', 10, 0, 0, 15, 0, 20, 0]",3,10,"prior",-99,"compound","make the rocks dissolve","rare_weak","kazzes",0,"rocks"
49,56376,"causals","rocks dissolve",0,"makes CATEGORY dissolve","[0, 20, 0, u'?', 10, 0, 0, 15, 0, 20, 0]",3,10,"prior",-99,"compound","make the rocks dissolve","rare_weak","kazzes",0.1,"rocks"
49,56376,"causals","rocks dissolve",0,"makes CATEGORY dissolve","[0, 20, 0, u'?', 10, 0, 0, 15, 0, 20, 0]",3,10,"prior",-99,"compound","make the rocks dissolve","rare_weak","kazzes",0.18,"rocks"
49,56376,"causals","rocks dissolve",0,"makes CATEGORY dissolve","[0, 20, 0, u'?', 10, 0, 0, 15, 0, 20, 0]",3,10,"prior",-99,"compound","make the rocks dissolve","rare_weak","kazzes",0,"rocks"
49,56376,"causals","rocks dissolve",0,"makes CATEGORY dissolve","[0, 20, 0, u'?', 10, 0, 0, 15, 0, 20, 0]",3,10,"prior",-99,"compound","make the rocks dissolve","rare_weak","kazzes",0,"rocks"
50,12686,"causals","animal make sleepy",0,"makes CATEGORY sleepy","[85, u'?', 75, 15, 75, 10, 90, 90, 80, 10, 20]",1,10,"prior",-99,"herb","make the animals sleepy","weak_or_strong","thups",0.52,"animals"
50,12686,"causals","animal make sleepy",0,"makes CATEGORY sleepy","[85, u'?', 75, 15, 75, 10, 90, 90, 80, 10, 20]",1,10,"prior",-99,"herb","make the animals sleepy","weak_or_strong","thups",0.51,"animals"
50,12686,"causals","animal make sleepy",0,"makes CATEGORY sleepy","[85, u'?', 75, 15, 75, 10, 90, 90, 80, 10, 20]",1,10,"prior",-99,"herb","make the animals sleepy","weak_or_strong","thups",0.51,"animals"
50,12686,"causals","animal make sleepy",0,"makes CATEGORY sleepy","[85, u'?', 75, 15, 75, 10, 90, 90, 80, 10, 20]",1,10,"prior",-99,"herb","make the animals sleepy","weak_or_strong","thups",0.51,"animals"
50,12686,"causals","animal make sleepy",0,"makes CATEGORY sleepy","[85, u'?', 75, 15, 75, 10, 90, 90, 80, 10, 20]",1,10,"prior",-99,"herb","make the animals sleepy","weak_or_strong","thups",0.51,"animals"
51,17114,"causals","plant grow indoors",0,"makes CATEGORY grow tall","[10, 20, 15, 10, 15, 20, u'?', 10, 10, 15, 20]",6,10,"prior",-99,"fertilizer","make the plants grow tall","common_weak","sapers",0.29,"plants"
51,17114,"causals","plant grow indoors",0,"makes CATEGORY grow tall","[10, 20, 15, 10, 15, 20, u'?', 10, 10, 15, 20]",6,10,"prior",-99,"fertilizer","make the plants grow tall","common_weak","sapers",0.24,"plants"
51,17114,"causals","plant grow indoors",0,"makes CATEGORY grow tall","[10, 20, 15, 10, 15, 20, u'?', 10, 10, 15, 20]",6,10,"prior",-99,"fertilizer","make the plants grow tall","common_weak","sapers",0.38,"plants"
51,17114,"causals","plant grow indoors",0,"makes CATEGORY grow tall","[10, 20, 15, 10, 15, 20, u'?', 10, 10, 15, 20]",6,10,"prior",-99,"fertilizer","make the plants grow tall","common_weak","sapers",0.39,"plants"
51,17114,"causals","plant grow indoors",0,"makes CATEGORY grow tall","[10, 20, 15, 10, 15, 20, u'?', 10, 10, 15, 20]",6,10,"prior",-99,"fertilizer","make the plants grow tall","common_weak","sapers",0.35,"plants"
52,50597,"causals","plant grow indoors",0,"makes CATEGORY grow tall","[75, 0, 65, u'?', 0, 80, 90, 0, 0, 80, 90]",3,10,"prior",-99,"fertilizer","make the plants grow tall","rare_strong","dorbs",0.73,"plants"
52,50597,"causals","plant grow indoors",0,"makes CATEGORY grow tall","[75, 0, 65, u'?', 0, 80, 90, 0, 0, 80, 90]",3,10,"prior",-99,"fertilizer","make the plants grow tall","rare_strong","dorbs",0.39,"plants"
52,50597,"causals","plant grow indoors",0,"makes CATEGORY grow tall","[75, 0, 65, u'?', 0, 80, 90, 0, 0, 80, 90]",3,10,"prior",-99,"fertilizer","make the plants grow tall","rare_strong","dorbs",0.38,"plants"
52,50597,"causals","plant grow indoors",0,"makes CATEGORY grow tall","[75, 0, 65, u'?', 0, 80, 90, 0, 0, 80, 90]",3,10,"prior",-99,"fertilizer","make the plants grow tall","rare_strong","dorbs",0.88,"plants"
52,50597,"causals","plant grow indoors",0,"makes CATEGORY grow tall","[75, 0, 65, u'?', 0, 80, 90, 0, 0, 80, 90]",3,10,"prior",-99,"fertilizer","make the plants grow tall","rare_strong","dorbs",0.39,"plants"
53,144371,"causals","animal make sleepy",0,"makes CATEGORY sleepy","[10, u'?', 20, 15, 10, 15, 20, 10, 10, 15, 20]",1,10,"prior",-99,"herb","make the animals sleepy","common_weak","stups",0.16,"animals"
53,144371,"causals","animal make sleepy",0,"makes CATEGORY sleepy","[10, u'?', 20, 15, 10, 15, 20, 10, 10, 15, 20]",1,10,"prior",-99,"herb","make the animals sleepy","common_weak","stups",0.27,"animals"
53,144371,"causals","animal make sleepy",0,"makes CATEGORY sleepy","[10, u'?', 20, 15, 10, 15, 20, 10, 10, 15, 20]",1,10,"prior",-99,"herb","make the animals sleepy","common_weak","stups",0.38,"animals"
53,144371,"causals","animal make sleepy",0,"makes CATEGORY sleepy","[10, u'?', 20, 15, 10, 15, 20, 10, 10, 15, 20]",1,10,"prior",-99,"herb","make the animals sleepy","common_weak","stups",0.16,"animals"
53,144371,"causals","animal make sleepy",0,"makes CATEGORY sleepy","[10, u'?', 20, 15, 10, 15, 20, 10, 10, 15, 20]",1,10,"prior",-99,"herb","make the animals sleepy","common_weak","stups",0.27,"animals"
54,70884,"causals","rocks dissolve",0,"makes CATEGORY dissolve","[10, 20, 15, 10, 15, 20, u'?', 10, 10, 15, 20]",6,10,"prior",-99,"compound","make the rocks dissolve","common_weak","morseths",0.21,"rocks"
54,70884,"causals","rocks dissolve",0,"makes CATEGORY dissolve","[10, 20, 15, 10, 15, 20, u'?', 10, 10, 15, 20]",6,10,"prior",-99,"compound","make the rocks dissolve","common_weak","morseths",0.14,"rocks"
54,70884,"causals","rocks dissolve",0,"makes CATEGORY dissolve","[10, 20, 15, 10, 15, 20, u'?', 10, 10, 15, 20]",6,10,"prior",-99,"compound","make the rocks dissolve","common_weak","morseths",0.1,"rocks"
54,70884,"causals","rocks dissolve",0,"makes CATEGORY dissolve","[10, 20, 15, 10, 15, 20, u'?', 10, 10, 15, 20]",6,10,"prior",-99,"compound","make the rocks dissolve","common_weak","morseths",0.16,"rocks"
54,70884,"causals","rocks dissolve",0,"makes CATEGORY dissolve","[10, 20, 15, 10, 15, 20, u'?', 10, 10, 15, 20]",6,10,"prior",-99,"compound","make the rocks dissolve","common_weak","morseths",0.11,"rocks"
55,224047,"causals","rocks dissolve",0,"makes CATEGORY dissolve","[0, 0, 100, 100, 0, 0, 100, u'?', 0, 0, 100]",7,10,"prior",-99,"compound","make the rocks dissolve","rare_deterministic","luzaks",1,"rocks"
55,224047,"causals","rocks dissolve",0,"makes CATEGORY dissolve","[0, 0, 100, 100, 0, 0, 100, u'?', 0, 0, 100]",7,10,"prior",-99,"compound","make the rocks dissolve","rare_deterministic","luzaks",0.99,"rocks"
55,224047,"causals","rocks dissolve",0,"makes CATEGORY dissolve","[0, 0, 100, 100, 0, 0, 100, u'?', 0, 0, 100]",7,10,"prior",-99,"compound","make the rocks dissolve","rare_deterministic","luzaks",0.01,"rocks"
55,224047,"causals","rocks dissolve",0,"makes CATEGORY dissolve","[0, 0, 100, 100, 0, 0, 100, u'?', 0, 0, 100]",7,10,"prior",-99,"compound","make the rocks dissolve","rare_deterministic","luzaks",0.99,"rocks"
55,224047,"causals","rocks dissolve",0,"makes CATEGORY dissolve","[0, 0, 100, 100, 0, 0, 100, u'?', 0, 0, 100]",7,10,"prior",-99,"compound","make the rocks dissolve","rare_deterministic","luzaks",0.02,"rocks"
56,206250,"causals","plant grow indoors",0,"makes CATEGORY grow tall","[75, 0, u'?', 65, 0, 80, 90, 0, 0, 80, 90]",2,10,"prior",-99,"fertilizer","make the plants grow tall","rare_strong","taifels",0,"plants"
56,206250,"causals","plant grow indoors",0,"makes CATEGORY grow tall","[75, 0, u'?', 65, 0, 80, 90, 0, 0, 80, 90]",2,10,"prior",-99,"fertilizer","make the plants grow tall","rare_strong","taifels",0.82,"plants"
56,206250,"causals","plant grow indoors",0,"makes CATEGORY grow tall","[75, 0, u'?', 65, 0, 80, 90, 0, 0, 80, 90]",2,10,"prior",-99,"fertilizer","make the plants grow tall","rare_strong","taifels",0.69,"plants"
56,206250,"causals","plant grow indoors",0,"makes CATEGORY grow tall","[75, 0, u'?', 65, 0, 80, 90, 0, 0, 80, 90]",2,10,"prior",-99,"fertilizer","make the plants grow tall","rare_strong","taifels",0.01,"plants"
56,206250,"causals","plant grow indoors",0,"makes CATEGORY grow tall","[75, 0, u'?', 65, 0, 80, 90, 0, 0, 80, 90]",2,10,"prior",-99,"fertilizer","make the plants grow tall","rare_strong","taifels",0.83,"plants"
57,95858,"causals","plant grow indoors",0,"makes CATEGORY grow tall","[0, 0, 100, 100, 0, u'?', 0, 100, 0, 0, 100]",5,10,"prior",-99,"fertilizer","make the plants grow tall","rare_deterministic","frams",1,"plants"
57,95858,"causals","plant grow indoors",0,"makes CATEGORY grow tall","[0, 0, 100, 100, 0, u'?', 0, 100, 0, 0, 100]",5,10,"prior",-99,"fertilizer","make the plants grow tall","rare_deterministic","frams",1,"plants"
57,95858,"causals","plant grow indoors",0,"makes CATEGORY grow tall","[0, 0, 100, 100, 0, u'?', 0, 100, 0, 0, 100]",5,10,"prior",-99,"fertilizer","make the plants grow tall","rare_deterministic","frams",0,"plants"
57,95858,"causals","plant grow indoors",0,"makes CATEGORY grow tall","[0, 0, 100, 100, 0, u'?', 0, 100, 0, 0, 100]",5,10,"prior",-99,"fertilizer","make the plants grow tall","rare_deterministic","frams",1,"plants"
57,95858,"causals","plant grow indoors",0,"makes CATEGORY grow tall","[0, 0, 100, 100, 0, u'?', 0, 100, 0, 0, 100]",5,10,"prior",-99,"fertilizer","make the plants grow tall","rare_deterministic","frams",0,"plants"
58,10868,"causals","plant grow indoors",0,"makes CATEGORY grow tall","[0, 0, 100, 100, 0, u'?', 0, 100, 0, 0, 100]",5,10,"prior",-99,"fertilizer","make the plants grow tall","rare_deterministic","reesles",0.29,"plants"
58,10868,"causals","plant grow indoors",0,"makes CATEGORY grow tall","[0, 0, 100, 100, 0, u'?', 0, 100, 0, 0, 100]",5,10,"prior",-99,"fertilizer","make the plants grow tall","rare_deterministic","reesles",0.42,"plants"
58,10868,"causals","plant grow indoors",0,"makes CATEGORY grow tall","[0, 0, 100, 100, 0, u'?', 0, 100, 0, 0, 100]",5,10,"prior",-99,"fertilizer","make the plants grow tall","rare_deterministic","reesles",0.42,"plants"
58,10868,"causals","plant grow indoors",0,"makes CATEGORY grow tall","[0, 0, 100, 100, 0, u'?', 0, 100, 0, 0, 100]",5,10,"prior",-99,"fertilizer","make the plants grow tall","rare_deterministic","reesles",0.22,"plants"
58,10868,"causals","plant grow indoors",0,"makes CATEGORY grow tall","[0, 0, 100, 100, 0, u'?', 0, 100, 0, 0, 100]",5,10,"prior",-99,"fertilizer","make the plants grow tall","rare_deterministic","reesles",0.29,"plants"
59,88696,"causals","animal make sleepy",0,"makes CATEGORY sleepy","[75, u'?', 0, 65, 0, 80, 90, 0, 0, 80, 90]",1,10,"prior",-99,"herb","make the animals sleepy","rare_strong","elleps",0.79,"animals"
59,88696,"causals","animal make sleepy",0,"makes CATEGORY sleepy","[75, u'?', 0, 65, 0, 80, 90, 0, 0, 80, 90]",1,10,"prior",-99,"herb","make the animals sleepy","rare_strong","elleps",0,"animals"
59,88696,"causals","animal make sleepy",0,"makes CATEGORY sleepy","[75, u'?', 0, 65, 0, 80, 90, 0, 0, 80, 90]",1,10,"prior",-99,"herb","make the animals sleepy","rare_strong","elleps",0,"animals"
59,88696,"causals","animal make sleepy",0,"makes CATEGORY sleepy","[75, u'?', 0, 65, 0, 80, 90, 0, 0, 80, 90]",1,10,"prior",-99,"herb","make the animals sleepy","rare_strong","elleps",0.91,"animals"
59,88696,"causals","animal make sleepy",0,"makes CATEGORY sleepy","[75, u'?', 0, 65, 0, 80, 90, 0, 0, 80, 90]",1,10,"prior",-99,"herb","make the animals sleepy","rare_strong","elleps",0,"animals"
60,54434,"causals","rocks dissolve",0,"makes CATEGORY dissolve","[0, 0, 100, 100, u'?', 0, 0, 100, 0, 0, 100]",4,10,"prior",-99,"compound","make the rocks dissolve","rare_deterministic","luzaks",0.99,"rocks"
60,54434,"causals","rocks dissolve",0,"makes CATEGORY dissolve","[0, 0, 100, 100, u'?', 0, 0, 100, 0, 0, 100]",4,10,"prior",-99,"compound","make the rocks dissolve","rare_deterministic","luzaks",0,"rocks"
60,54434,"causals","rocks dissolve",0,"makes CATEGORY dissolve","[0, 0, 100, 100, u'?', 0, 0, 100, 0, 0, 100]",4,10,"prior",-99,"compound","make the rocks dissolve","rare_deterministic","luzaks",0,"rocks"
60,54434,"causals","rocks dissolve",0,"makes CATEGORY dissolve","[0, 0, 100, 100, u'?', 0, 0, 100, 0, 0, 100]",4,10,"prior",-99,"compound","make the rocks dissolve","rare_deterministic","luzaks",1,"rocks"
60,54434,"causals","rocks dissolve",0,"makes CATEGORY dissolve","[0, 0, 100, 100, u'?', 0, 0, 100, 0, 0, 100]",4,10,"prior",-99,"compound","make the rocks dissolve","rare_deterministic","luzaks",0,"rocks"
61,53468,"causals","rocks dissolve",0,"makes CATEGORY dissolve","[0, 20, 0, 10, 0, 0, 15, 0, u'?', 20, 0]",8,10,"prior",-99,"compound","make the rocks dissolve","rare_weak","ollers",0.13,"rocks"
61,53468,"causals","rocks dissolve",0,"makes CATEGORY dissolve","[0, 20, 0, 10, 0, 0, 15, 0, u'?', 20, 0]",8,10,"prior",-99,"compound","make the rocks dissolve","rare_weak","ollers",0,"rocks"
61,53468,"causals","rocks dissolve",0,"makes CATEGORY dissolve","[0, 20, 0, 10, 0, 0, 15, 0, u'?', 20, 0]",8,10,"prior",-99,"compound","make the rocks dissolve","rare_weak","ollers",0,"rocks"
61,53468,"causals","rocks dissolve",0,"makes CATEGORY dissolve","[0, 20, 0, 10, 0, 0, 15, 0, u'?', 20, 0]",8,10,"prior",-99,"compound","make the rocks dissolve","rare_weak","ollers",0.24,"rocks"
61,53468,"causals","rocks dissolve",0,"makes CATEGORY dissolve","[0, 20, 0, 10, 0, 0, 15, 0, u'?', 20, 0]",8,10,"prior",-99,"compound","make the rocks dissolve","rare_weak","ollers",0.01,"rocks"
62,61554,"causals","rocks dissolve",0,"makes CATEGORY dissolve","[10, 20, 15, 10, 15, 20, 10, u'?', 10, 15, 20]",7,10,"prior",-99,"compound","make the rocks dissolve","common_weak","blins",0.15,"rocks"
62,61554,"causals","rocks dissolve",0,"makes CATEGORY dissolve","[10, 20, 15, 10, 15, 20, 10, u'?', 10, 15, 20]",7,10,"prior",-99,"compound","make the rocks dissolve","common_weak","blins",0.2,"rocks"
62,61554,"causals","rocks dissolve",0,"makes CATEGORY dissolve","[10, 20, 15, 10, 15, 20, 10, u'?', 10, 15, 20]",7,10,"prior",-99,"compound","make the rocks dissolve","common_weak","blins",0.24,"rocks"
62,61554,"causals","rocks dissolve",0,"makes CATEGORY dissolve","[10, 20, 15, 10, 15, 20, 10, u'?', 10, 15, 20]",7,10,"prior",-99,"compound","make the rocks dissolve","common_weak","blins",0.18,"rocks"
62,61554,"causals","rocks dissolve",0,"makes CATEGORY dissolve","[10, 20, 15, 10, 15, 20, 10, u'?', 10, 15, 20]",7,10,"prior",-99,"compound","make the rocks dissolve","common_weak","blins",0.12,"rocks"
63,58166,"causals","rocks dissolve",0,"makes CATEGORY dissolve","[75, u'?', 0, 65, 0, 80, 90, 0, 0, 80, 90]",1,10,"prior",-99,"compound","make the rocks dissolve","rare_strong","frams",0.51,"rocks"
63,58166,"causals","rocks dissolve",0,"makes CATEGORY dissolve","[75, u'?', 0, 65, 0, 80, 90, 0, 0, 80, 90]",1,10,"prior",-99,"compound","make the rocks dissolve","rare_strong","frams",0,"rocks"
63,58166,"causals","rocks dissolve",0,"makes CATEGORY dissolve","[75, u'?', 0, 65, 0, 80, 90, 0, 0, 80, 90]",1,10,"prior",-99,"compound","make the rocks dissolve","rare_strong","frams",0.27,"rocks"
63,58166,"causals","rocks dissolve",0,"makes CATEGORY dissolve","[75, u'?', 0, 65, 0, 80, 90, 0, 0, 80, 90]",1,10,"prior",-99,"compound","make the rocks dissolve","rare_strong","frams",0,"rocks"
63,58166,"causals","rocks dissolve",0,"makes CATEGORY dissolve","[75, u'?', 0, 65, 0, 80, 90, 0, 0, 80, 90]",1,10,"prior",-99,"compound","make the rocks dissolve","rare_strong","frams",0.91,"rocks"
64,151994,"causals","plant grow indoors",0,"makes CATEGORY grow tall","[0, 20, 0, 10, u'?', 0, 0, 15, 0, 20, 0]",4,10,"prior",-99,"fertilizer","make the plants grow tall","rare_weak","pangolins",0,"plants"
64,151994,"causals","plant grow indoors",0,"makes CATEGORY grow tall","[0, 20, 0, 10, u'?', 0, 0, 15, 0, 20, 0]",4,10,"prior",-99,"fertilizer","make the plants grow tall","rare_weak","pangolins",0,"plants"
64,151994,"causals","plant grow indoors",0,"makes CATEGORY grow tall","[0, 20, 0, 10, u'?', 0, 0, 15, 0, 20, 0]",4,10,"prior",-99,"fertilizer","make the plants grow tall","rare_weak","pangolins",0.2,"plants"
64,151994,"causals","plant grow indoors",0,"makes CATEGORY grow tall","[0, 20, 0, 10, u'?', 0, 0, 15, 0, 20, 0]",4,10,"prior",-99,"fertilizer","make the plants grow tall","rare_weak","pangolins",0,"plants"
64,151994,"causals","plant grow indoors",0,"makes CATEGORY grow tall","[0, 20, 0, 10, u'?', 0, 0, 15, 0, 20, 0]",4,10,"prior",-99,"fertilizer","make the plants grow tall","rare_weak","pangolins",0.15,"plants"
65,147341,"causals","plant grow indoors",0,"makes CATEGORY grow tall","[10, 20, 15, 10, 15, 20, 10, 10, u'?', 15, 20]",8,10,"prior",-99,"fertilizer","make the plants grow tall","common_weak","zoovs",0.2,"plants"
65,147341,"causals","plant grow indoors",0,"makes CATEGORY grow tall","[10, 20, 15, 10, 15, 20, 10, 10, u'?', 15, 20]",8,10,"prior",-99,"fertilizer","make the plants grow tall","common_weak","zoovs",0.19,"plants"
65,147341,"causals","plant grow indoors",0,"makes CATEGORY grow tall","[10, 20, 15, 10, 15, 20, 10, 10, u'?', 15, 20]",8,10,"prior",-99,"fertilizer","make the plants grow tall","common_weak","zoovs",0.21,"plants"
65,147341,"causals","plant grow indoors",0,"makes CATEGORY grow tall","[10, 20, 15, 10, 15, 20, 10, 10, u'?', 15, 20]",8,10,"prior",-99,"fertilizer","make the plants grow tall","common_weak","zoovs",0.19,"plants"
65,147341,"causals","plant grow indoors",0,"makes CATEGORY grow tall","[10, 20, 15, 10, 15, 20, 10, 10, u'?', 15, 20]",8,10,"prior",-99,"fertilizer","make the plants grow tall","common_weak","zoovs",0.2,"plants"
66,46084,"causals","plant grow indoors",0,"makes CATEGORY grow tall","[85, 75, 15, 75, 10, 90, u'?', 90, 80, 10, 20]",6,10,"prior",-99,"fertilizer","make the plants grow tall","weak_or_strong","grinks",0.68,"plants"
66,46084,"causals","plant grow indoors",0,"makes CATEGORY grow tall","[85, 75, 15, 75, 10, 90, u'?', 90, 80, 10, 20]",6,10,"prior",-99,"fertilizer","make the plants grow tall","weak_or_strong","grinks",0.56,"plants"
66,46084,"causals","plant grow indoors",0,"makes CATEGORY grow tall","[85, 75, 15, 75, 10, 90, u'?', 90, 80, 10, 20]",6,10,"prior",-99,"fertilizer","make the plants grow tall","weak_or_strong","grinks",0.91,"plants"
66,46084,"causals","plant grow indoors",0,"makes CATEGORY grow tall","[85, 75, 15, 75, 10, 90, u'?', 90, 80, 10, 20]",6,10,"prior",-99,"fertilizer","make the plants grow tall","weak_or_strong","grinks",0.14,"plants"
66,46084,"causals","plant grow indoors",0,"makes CATEGORY grow tall","[85, 75, 15, 75, 10, 90, u'?', 90, 80, 10, 20]",6,10,"prior",-99,"fertilizer","make the plants grow tall","weak_or_strong","grinks",0.64,"plants"
67,52560,"causals","plant grow indoors",0,"makes CATEGORY grow tall","[75, 65, 65, 75, 80, u'?', 90, 80, 75, 80, 90]",5,10,"prior",-99,"fertilizer","make the plants grow tall","common_strong","morseths",0.64,"plants"
67,52560,"causals","plant grow indoors",0,"makes CATEGORY grow tall","[75, 65, 65, 75, 80, u'?', 90, 80, 75, 80, 90]",5,10,"prior",-99,"fertilizer","make the plants grow tall","common_strong","morseths",0.62,"plants"
67,52560,"causals","plant grow indoors",0,"makes CATEGORY grow tall","[75, 65, 65, 75, 80, u'?', 90, 80, 75, 80, 90]",5,10,"prior",-99,"fertilizer","make the plants grow tall","common_strong","morseths",0.73,"plants"
67,52560,"causals","plant grow indoors",0,"makes CATEGORY grow tall","[75, 65, 65, 75, 80, u'?', 90, 80, 75, 80, 90]",5,10,"prior",-99,"fertilizer","make the plants grow tall","common_strong","morseths",0.55,"plants"
67,52560,"causals","plant grow indoors",0,"makes CATEGORY grow tall","[75, 65, 65, 75, 80, u'?', 90, 80, 75, 80, 90]",5,10,"prior",-99,"fertilizer","make the plants grow tall","common_strong","morseths",0.7,"plants"
68,52865,"causals","rocks dissolve",0,"makes CATEGORY dissolve","[10, 20, u'?', 15, 10, 15, 20, 10, 10, 15, 20]",2,10,"prior",-99,"compound","make the rocks dissolve","common_weak","dorbs",0.12,"rocks"
68,52865,"causals","rocks dissolve",0,"makes CATEGORY dissolve","[10, 20, u'?', 15, 10, 15, 20, 10, 10, 15, 20]",2,10,"prior",-99,"compound","make the rocks dissolve","common_weak","dorbs",0.12,"rocks"
68,52865,"causals","rocks dissolve",0,"makes CATEGORY dissolve","[10, 20, u'?', 15, 10, 15, 20, 10, 10, 15, 20]",2,10,"prior",-99,"compound","make the rocks dissolve","common_weak","dorbs",0.12,"rocks"
68,52865,"causals","rocks dissolve",0,"makes CATEGORY dissolve","[10, 20, u'?', 15, 10, 15, 20, 10, 10, 15, 20]",2,10,"prior",-99,"compound","make the rocks dissolve","common_weak","dorbs",0.12,"rocks"
68,52865,"causals","rocks dissolve",0,"makes CATEGORY dissolve","[10, 20, u'?', 15, 10, 15, 20, 10, 10, 15, 20]",2,10,"prior",-99,"compound","make the rocks dissolve","common_weak","dorbs",0.12,"rocks"
69,235944,"causals","plant grow indoors",0,"makes CATEGORY grow tall","[10, 20, 15, u'?', 10, 15, 20, 10, 10, 15, 20]",3,10,"prior",-99,"fertilizer","make the plants grow tall","common_weak","reesles",0.13,"plants"
69,235944,"causals","plant grow indoors",0,"makes CATEGORY grow tall","[10, 20, 15, u'?', 10, 15, 20, 10, 10, 15, 20]",3,10,"prior",-99,"fertilizer","make the plants grow tall","common_weak","reesles",0.13,"plants"
69,235944,"causals","plant grow indoors",0,"makes CATEGORY grow tall","[10, 20, 15, u'?', 10, 15, 20, 10, 10, 15, 20]",3,10,"prior",-99,"fertilizer","make the plants grow tall","common_weak","reesles",0.3,"plants"
69,235944,"causals","plant grow indoors",0,"makes CATEGORY grow tall","[10, 20, 15, u'?', 10, 15, 20, 10, 10, 15, 20]",3,10,"prior",-99,"fertilizer","make the plants grow tall","common_weak","reesles",0.13,"plants"
69,235944,"causals","plant grow indoors",0,"makes CATEGORY grow tall","[10, 20, 15, u'?', 10, 15, 20, 10, 10, 15, 20]",3,10,"prior",-99,"fertilizer","make the plants grow tall","common_weak","reesles",0.22,"plants"
70,93638,"causals","animal make sleepy",0,"makes CATEGORY sleepy","[75, 0, 65, 0, 80, 90, 0, u'?', 0, 80, 90]",7,10,"prior",-99,"herb","make the animals sleepy","rare_strong","dorbs",0,"animals"
70,93638,"causals","animal make sleepy",0,"makes CATEGORY sleepy","[75, 0, 65, 0, 80, 90, 0, u'?', 0, 80, 90]",7,10,"prior",-99,"herb","make the animals sleepy","rare_strong","dorbs",0.73,"animals"
70,93638,"causals","animal make sleepy",0,"makes CATEGORY sleepy","[75, 0, 65, 0, 80, 90, 0, u'?', 0, 80, 90]",7,10,"prior",-99,"herb","make the animals sleepy","rare_strong","dorbs",0,"animals"
70,93638,"causals","animal make sleepy",0,"makes CATEGORY sleepy","[75, 0, 65, 0, 80, 90, 0, u'?', 0, 80, 90]",7,10,"prior",-99,"herb","make the animals sleepy","rare_strong","dorbs",0.8,"animals"
70,93638,"causals","animal make sleepy",0,"makes CATEGORY sleepy","[75, 0, 65, 0, 80, 90, 0, u'?', 0, 80, 90]",7,10,"prior",-99,"herb","make the animals sleepy","rare_strong","dorbs",0.71,"animals"
71,80639,"causals","plant grow indoors",0,"makes CATEGORY grow tall","[75, u'?', 0, 65, 0, 80, 90, 0, 0, 80, 90]",1,10,"prior",-99,"fertilizer","make the plants grow tall","rare_strong","reesles",0,"plants"
71,80639,"causals","plant grow indoors",0,"makes CATEGORY grow tall","[75, u'?', 0, 65, 0, 80, 90, 0, 0, 80, 90]",1,10,"prior",-99,"fertilizer","make the plants grow tall","rare_strong","reesles",0.75,"plants"
71,80639,"causals","plant grow indoors",0,"makes CATEGORY grow tall","[75, u'?', 0, 65, 0, 80, 90, 0, 0, 80, 90]",1,10,"prior",-99,"fertilizer","make the plants grow tall","rare_strong","reesles",0,"plants"
71,80639,"causals","plant grow indoors",0,"makes CATEGORY grow tall","[75, u'?', 0, 65, 0, 80, 90, 0, 0, 80, 90]",1,10,"prior",-99,"fertilizer","make the plants grow tall","rare_strong","reesles",0.68,"plants"
71,80639,"causals","plant grow indoors",0,"makes CATEGORY grow tall","[75, u'?', 0, 65, 0, 80, 90, 0, 0, 80, 90]",1,10,"prior",-99,"fertilizer","make the plants grow tall","rare_strong","reesles",0,"plants"
72,39365,"causals","plant grow indoors",0,"makes CATEGORY grow tall","[0, u'?', 0, 100, 100, 0, 0, 100, 0, 0, 100]",1,10,"prior",-99,"fertilizer","make the plants grow tall","rare_deterministic","lorches",1,"plants"
72,39365,"causals","plant grow indoors",0,"makes CATEGORY grow tall","[0, u'?', 0, 100, 100, 0, 0, 100, 0, 0, 100]",1,10,"prior",-99,"fertilizer","make the plants grow tall","rare_deterministic","lorches",0,"plants"
72,39365,"causals","plant grow indoors",0,"makes CATEGORY grow tall","[0, u'?', 0, 100, 100, 0, 0, 100, 0, 0, 100]",1,10,"prior",-99,"fertilizer","make the plants grow tall","rare_deterministic","lorches",0,"plants"
72,39365,"causals","plant grow indoors",0,"makes CATEGORY grow tall","[0, u'?', 0, 100, 100, 0, 0, 100, 0, 0, 100]",1,10,"prior",-99,"fertilizer","make the plants grow tall","rare_deterministic","lorches",1,"plants"
72,39365,"causals","plant grow indoors",0,"makes CATEGORY grow tall","[0, u'?', 0, 100, 100, 0, 0, 100, 0, 0, 100]",1,10,"prior",-99,"fertilizer","make the plants grow tall","rare_deterministic","lorches",0,"plants"
73,72848,"causals","plant grow indoors",0,"makes CATEGORY grow tall","[10, 20, 15, 10, 15, 20, 10, 10, u'?', 15, 20]",8,10,"prior",-99,"fertilizer","make the plants grow tall","common_weak","elleps",0.17,"plants"
73,72848,"causals","plant grow indoors",0,"makes CATEGORY grow tall","[10, 20, 15, 10, 15, 20, 10, 10, u'?', 15, 20]",8,10,"prior",-99,"fertilizer","make the plants grow tall","common_weak","elleps",0.17,"plants"
73,72848,"causals","plant grow indoors",0,"makes CATEGORY grow tall","[10, 20, 15, 10, 15, 20, 10, 10, u'?', 15, 20]",8,10,"prior",-99,"fertilizer","make the plants grow tall","common_weak","elleps",0.23,"plants"
73,72848,"causals","plant grow indoors",0,"makes CATEGORY grow tall","[10, 20, 15, 10, 15, 20, 10, 10, u'?', 15, 20]",8,10,"prior",-99,"fertilizer","make the plants grow tall","common_weak","elleps",0.17,"plants"
73,72848,"causals","plant grow indoors",0,"makes CATEGORY grow tall","[10, 20, 15, 10, 15, 20, 10, 10, u'?', 15, 20]",8,10,"prior",-99,"fertilizer","make the plants grow tall","common_weak","elleps",0.17,"plants"
74,14447,"causals","animal make sleepy",0,"makes CATEGORY sleepy","[85, 75, 15, 75, 10, 90, u'?', 90, 80, 10, 20]",6,10,"prior",-99,"herb","make the animals sleepy","weak_or_strong","zorbs",0.36,"animals"
74,14447,"causals","animal make sleepy",0,"makes CATEGORY sleepy","[85, 75, 15, 75, 10, 90, u'?', 90, 80, 10, 20]",6,10,"prior",-99,"herb","make the animals sleepy","weak_or_strong","zorbs",0.56,"animals"
74,14447,"causals","animal make sleepy",0,"makes CATEGORY sleepy","[85, 75, 15, 75, 10, 90, u'?', 90, 80, 10, 20]",6,10,"prior",-99,"herb","make the animals sleepy","weak_or_strong","zorbs",0.53,"animals"
74,14447,"causals","animal make sleepy",0,"makes CATEGORY sleepy","[85, 75, 15, 75, 10, 90, u'?', 90, 80, 10, 20]",6,10,"prior",-99,"herb","make the animals sleepy","weak_or_strong","zorbs",0.62,"animals"
74,14447,"causals","animal make sleepy",0,"makes CATEGORY sleepy","[85, 75, 15, 75, 10, 90, u'?', 90, 80, 10, 20]",6,10,"prior",-99,"herb","make the animals sleepy","weak_or_strong","zorbs",0.38,"animals"
75,61393,"causals","animal make sleepy",0,"makes CATEGORY sleepy","[75, 65, 65, 75, 80, u'?', 90, 80, 75, 80, 90]",5,10,"prior",-99,"herb","make the animals sleepy","common_strong","dorbs",0.76,"animals"
75,61393,"causals","animal make sleepy",0,"makes CATEGORY sleepy","[75, 65, 65, 75, 80, u'?', 90, 80, 75, 80, 90]",5,10,"prior",-99,"herb","make the animals sleepy","common_strong","dorbs",0.56,"animals"
75,61393,"causals","animal make sleepy",0,"makes CATEGORY sleepy","[75, 65, 65, 75, 80, u'?', 90, 80, 75, 80, 90]",5,10,"prior",-99,"herb","make the animals sleepy","common_strong","dorbs",0.26,"animals"
75,61393,"causals","animal make sleepy",0,"makes CATEGORY sleepy","[75, 65, 65, 75, 80, u'?', 90, 80, 75, 80, 90]",5,10,"prior",-99,"herb","make the animals sleepy","common_strong","dorbs",0.56,"animals"
75,61393,"causals","animal make sleepy",0,"makes CATEGORY sleepy","[75, 65, 65, 75, 80, u'?', 90, 80, 75, 80, 90]",5,10,"prior",-99,"herb","make the animals sleepy","common_strong","dorbs",0.26,"animals"
76,75326,"causals","animal make sleepy",0,"makes CATEGORY sleepy","[0, 0, 100, 100, 0, u'?', 0, 100, 0, 0, 100]",5,10,"prior",-99,"herb","make the animals sleepy","rare_deterministic","trufts",0,"animals"
76,75326,"causals","animal make sleepy",0,"makes CATEGORY sleepy","[0, 0, 100, 100, 0, u'?', 0, 100, 0, 0, 100]",5,10,"prior",-99,"herb","make the animals sleepy","rare_deterministic","trufts",0.01,"animals"
76,75326,"causals","animal make sleepy",0,"makes CATEGORY sleepy","[0, 0, 100, 100, 0, u'?', 0, 100, 0, 0, 100]",5,10,"prior",-99,"herb","make the animals sleepy","rare_deterministic","trufts",0.02,"animals"
76,75326,"causals","animal make sleepy",0,"makes CATEGORY sleepy","[0, 0, 100, 100, 0, u'?', 0, 100, 0, 0, 100]",5,10,"prior",-99,"herb","make the animals sleepy","rare_deterministic","trufts",0.02,"animals"
76,75326,"causals","animal make sleepy",0,"makes CATEGORY sleepy","[0, 0, 100, 100, 0, u'?', 0, 100, 0, 0, 100]",5,10,"prior",-99,"herb","make the animals sleepy","rare_deterministic","trufts",0.01,"animals"
77,85712,"causals","animal make sleepy",0,"makes CATEGORY sleepy","[0, 20, u'?', 0, 10, 0, 0, 15, 0, 20, 0]",2,10,"prior",-99,"herb","make the animals sleepy","rare_weak","lorches",0.04,"animals"
77,85712,"causals","animal make sleepy",0,"makes CATEGORY sleepy","[0, 20, u'?', 0, 10, 0, 0, 15, 0, 20, 0]",2,10,"prior",-99,"herb","make the animals sleepy","rare_weak","lorches",0.05,"animals"
77,85712,"causals","animal make sleepy",0,"makes CATEGORY sleepy","[0, 20, u'?', 0, 10, 0, 0, 15, 0, 20, 0]",2,10,"prior",-99,"herb","make the animals sleepy","rare_weak","lorches",0.05,"animals"
77,85712,"causals","animal make sleepy",0,"makes CATEGORY sleepy","[0, 20, u'?', 0, 10, 0, 0, 15, 0, 20, 0]",2,10,"prior",-99,"herb","make the animals sleepy","rare_weak","lorches",0.07,"animals"
77,85712,"causals","animal make sleepy",0,"makes CATEGORY sleepy","[0, 20, u'?', 0, 10, 0, 0, 15, 0, 20, 0]",2,10,"prior",-99,"herb","make the animals sleepy","rare_weak","lorches",0.14,"animals"
78,78456,"causals","rocks dissolve",0,"makes CATEGORY dissolve","[0, 0, u'?', 100, 100, 0, 0, 100, 0, 0, 100]",2,10,"prior",-99,"compound","make the rocks dissolve","rare_deterministic","morseths",1,"rocks"
78,78456,"causals","rocks dissolve",0,"makes CATEGORY dissolve","[0, 0, u'?', 100, 100, 0, 0, 100, 0, 0, 100]",2,10,"prior",-99,"compound","make the rocks dissolve","rare_deterministic","morseths",1,"rocks"
78,78456,"causals","rocks dissolve",0,"makes CATEGORY dissolve","[0, 0, u'?', 100, 100, 0, 0, 100, 0, 0, 100]",2,10,"prior",-99,"compound","make the rocks dissolve","rare_deterministic","morseths",1,"rocks"
78,78456,"causals","rocks dissolve",0,"makes CATEGORY dissolve","[0, 0, u'?', 100, 100, 0, 0, 100, 0, 0, 100]",2,10,"prior",-99,"compound","make the rocks dissolve","rare_deterministic","morseths",1,"rocks"
78,78456,"causals","rocks dissolve",0,"makes CATEGORY dissolve","[0, 0, u'?', 100, 100, 0, 0, 100, 0, 0, 100]",2,10,"prior",-99,"compound","make the rocks dissolve","rare_deterministic","morseths",1,"rocks"
79,86965,"causals","rocks dissolve",0,"makes CATEGORY dissolve","[75, u'?', 65, 65, 75, 80, 90, 80, 75, 80, 90]",1,10,"prior",-99,"compound","make the rocks dissolve","common_strong","zorbs",0.59,"rocks"
79,86965,"causals","rocks dissolve",0,"makes CATEGORY dissolve","[75, u'?', 65, 65, 75, 80, 90, 80, 75, 80, 90]",1,10,"prior",-99,"compound","make the rocks dissolve","common_strong","zorbs",0.61,"rocks"
79,86965,"causals","rocks dissolve",0,"makes CATEGORY dissolve","[75, u'?', 65, 65, 75, 80, 90, 80, 75, 80, 90]",1,10,"prior",-99,"compound","make the rocks dissolve","common_strong","zorbs",0.48,"rocks"
79,86965,"causals","rocks dissolve",0,"makes CATEGORY dissolve","[75, u'?', 65, 65, 75, 80, 90, 80, 75, 80, 90]",1,10,"prior",-99,"compound","make the rocks dissolve","common_strong","zorbs",0.58,"rocks"
79,86965,"causals","rocks dissolve",0,"makes CATEGORY dissolve","[75, u'?', 65, 65, 75, 80, 90, 80, 75, 80, 90]",1,10,"prior",-99,"compound","make the rocks dissolve","common_strong","zorbs",0.68,"rocks"
80,137634,"causals","animal make sleepy",0,"makes CATEGORY sleepy","[85, 75, 15, 75, 10, 90, u'?', 90, 80, 10, 20]",6,10,"prior",-99,"herb","make the animals sleepy","weak_or_strong","sapers",0.16,"animals"
80,137634,"causals","animal make sleepy",0,"makes CATEGORY sleepy","[85, 75, 15, 75, 10, 90, u'?', 90, 80, 10, 20]",6,10,"prior",-99,"herb","make the animals sleepy","weak_or_strong","sapers",0.37,"animals"
80,137634,"causals","animal make sleepy",0,"makes CATEGORY sleepy","[85, 75, 15, 75, 10, 90, u'?', 90, 80, 10, 20]",6,10,"prior",-99,"herb","make the animals sleepy","weak_or_strong","sapers",0.74,"animals"
80,137634,"causals","animal make sleepy",0,"makes CATEGORY sleepy","[85, 75, 15, 75, 10, 90, u'?', 90, 80, 10, 20]",6,10,"prior",-99,"herb","make the animals sleepy","weak_or_strong","sapers",0.89,"animals"
80,137634,"causals","animal make sleepy",0,"makes CATEGORY sleepy","[85, 75, 15, 75, 10, 90, u'?', 90, 80, 10, 20]",6,10,"prior",-99,"herb","make the animals sleepy","weak_or_strong","sapers",0.72,"animals"
81,20233,"causals","plant grow indoors",0,"makes CATEGORY grow tall","[0, 20, 0, 10, 0, 0, u'?', 15, 0, 20, 0]",6,10,"prior",-99,"fertilizer","make the plants grow tall","rare_weak","plovs",0.49,"plants"
81,20233,"causals","plant grow indoors",0,"makes CATEGORY grow tall","[0, 20, 0, 10, 0, 0, u'?', 15, 0, 20, 0]",6,10,"prior",-99,"fertilizer","make the plants grow tall","rare_weak","plovs",0.32,"plants"
81,20233,"causals","plant grow indoors",0,"makes CATEGORY grow tall","[0, 20, 0, 10, 0, 0, u'?', 15, 0, 20, 0]",6,10,"prior",-99,"fertilizer","make the plants grow tall","rare_weak","plovs",0.36,"plants"
81,20233,"causals","plant grow indoors",0,"makes CATEGORY grow tall","[0, 20, 0, 10, 0, 0, u'?', 15, 0, 20, 0]",6,10,"prior",-99,"fertilizer","make the plants grow tall","rare_weak","plovs",0.35,"plants"
81,20233,"causals","plant grow indoors",0,"makes CATEGORY grow tall","[0, 20, 0, 10, 0, 0, u'?', 15, 0, 20, 0]",6,10,"prior",-99,"fertilizer","make the plants grow tall","rare_weak","plovs",0.65,"plants"
82,79739,"causals","rocks dissolve",0,"makes CATEGORY dissolve","[0, 20, u'?', 0, 10, 0, 0, 15, 0, 20, 0]",2,10,"prior",-99,"compound","make the rocks dissolve","rare_weak","zorbs",0,"rocks"
82,79739,"causals","rocks dissolve",0,"makes CATEGORY dissolve","[0, 20, u'?', 0, 10, 0, 0, 15, 0, 20, 0]",2,10,"prior",-99,"compound","make the rocks dissolve","rare_weak","zorbs",0.1,"rocks"
82,79739,"causals","rocks dissolve",0,"makes CATEGORY dissolve","[0, 20, u'?', 0, 10, 0, 0, 15, 0, 20, 0]",2,10,"prior",-99,"compound","make the rocks dissolve","rare_weak","zorbs",0.06,"rocks"
82,79739,"causals","rocks dissolve",0,"makes CATEGORY dissolve","[0, 20, u'?', 0, 10, 0, 0, 15, 0, 20, 0]",2,10,"prior",-99,"compound","make the rocks dissolve","rare_weak","zorbs",0,"rocks"
82,79739,"causals","rocks dissolve",0,"makes CATEGORY dissolve","[0, 20, u'?', 0, 10, 0, 0, 15, 0, 20, 0]",2,10,"prior",-99,"compound","make the rocks dissolve","rare_weak","zorbs",0,"rocks"
83,82485,"causals","rocks dissolve",0,"makes CATEGORY dissolve","[0, 0, 100, 100, 0, 0, 100, 0, u'?', 0, 100]",8,10,"prior",-99,"compound","make the rocks dissolve","rare_deterministic","blins",0.99,"rocks"
83,82485,"causals","rocks dissolve",0,"makes CATEGORY dissolve","[0, 0, 100, 100, 0, 0, 100, 0, u'?', 0, 100]",8,10,"prior",-99,"compound","make the rocks dissolve","rare_deterministic","blins",0,"rocks"
83,82485,"causals","rocks dissolve",0,"makes CATEGORY dissolve","[0, 0, 100, 100, 0, 0, 100, 0, u'?', 0, 100]",8,10,"prior",-99,"compound","make the rocks dissolve","rare_deterministic","blins",0,"rocks"
83,82485,"causals","rocks dissolve",0,"makes CATEGORY dissolve","[0, 0, 100, 100, 0, 0, 100, 0, u'?', 0, 100]",8,10,"prior",-99,"compound","make the rocks dissolve","rare_deterministic","blins",1,"rocks"
83,82485,"causals","rocks dissolve",0,"makes CATEGORY dissolve","[0, 0, 100, 100, 0, 0, 100, 0, u'?', 0, 100]",8,10,"prior",-99,"compound","make the rocks dissolve","rare_deterministic","blins",0,"rocks"
84,75712,"causals","plant grow indoors",0,"makes CATEGORY grow tall","[75, 0, 65, 0, 80, 90, u'?', 0, 0, 80, 90]",6,10,"prior",-99,"fertilizer","make the plants grow tall","rare_strong","moxes",0.4,"plants"
84,75712,"causals","plant grow indoors",0,"makes CATEGORY grow tall","[75, 0, 65, 0, 80, 90, u'?', 0, 0, 80, 90]",6,10,"prior",-99,"fertilizer","make the plants grow tall","rare_strong","moxes",0,"plants"
84,75712,"causals","plant grow indoors",0,"makes CATEGORY grow tall","[75, 0, 65, 0, 80, 90, u'?', 0, 0, 80, 90]",6,10,"prior",-99,"fertilizer","make the plants grow tall","rare_strong","moxes",0.58,"plants"
84,75712,"causals","plant grow indoors",0,"makes CATEGORY grow tall","[75, 0, 65, 0, 80, 90, u'?', 0, 0, 80, 90]",6,10,"prior",-99,"fertilizer","make the plants grow tall","rare_strong","moxes",0,"plants"
84,75712,"causals","plant grow indoors",0,"makes CATEGORY grow tall","[75, 0, 65, 0, 80, 90, u'?', 0, 0, 80, 90]",6,10,"prior",-99,"fertilizer","make the plants grow tall","rare_strong","moxes",0,"plants"
85,49584,"causals","plant grow indoors",0,"makes CATEGORY grow tall","[75, 0, u'?', 65, 0, 80, 90, 0, 0, 80, 90]",2,10,"prior",-99,"fertilizer","make the plants grow tall","rare_strong","wugs",0.01,"plants"
85,49584,"causals","plant grow indoors",0,"makes CATEGORY grow tall","[75, 0, u'?', 65, 0, 80, 90, 0, 0, 80, 90]",2,10,"prior",-99,"fertilizer","make the plants grow tall","rare_strong","wugs",0.01,"plants"
85,49584,"causals","plant grow indoors",0,"makes CATEGORY grow tall","[75, 0, u'?', 65, 0, 80, 90, 0, 0, 80, 90]",2,10,"prior",-99,"fertilizer","make the plants grow tall","rare_strong","wugs",0.86,"plants"
85,49584,"causals","plant grow indoors",0,"makes CATEGORY grow tall","[75, 0, u'?', 65, 0, 80, 90, 0, 0, 80, 90]",2,10,"prior",-99,"fertilizer","make the plants grow tall","rare_strong","wugs",0.81,"plants"
85,49584,"causals","plant grow indoors",0,"makes CATEGORY grow tall","[75, 0, u'?', 65, 0, 80, 90, 0, 0, 80, 90]",2,10,"prior",-99,"fertilizer","make the plants grow tall","rare_strong","wugs",0.16,"plants"
86,87772,"causals","rocks dissolve",0,"makes CATEGORY dissolve","[85, 75, 15, 75, u'?', 10, 90, 90, 80, 10, 20]",4,10,"prior",-99,"compound","make the rocks dissolve","weak_or_strong","lorches",0.74,"rocks"
86,87772,"causals","rocks dissolve",0,"makes CATEGORY dissolve","[85, 75, 15, 75, u'?', 10, 90, 90, 80, 10, 20]",4,10,"prior",-99,"compound","make the rocks dissolve","weak_or_strong","lorches",0.8,"rocks"
86,87772,"causals","rocks dissolve",0,"makes CATEGORY dissolve","[85, 75, 15, 75, u'?', 10, 90, 90, 80, 10, 20]",4,10,"prior",-99,"compound","make the rocks dissolve","weak_or_strong","lorches",0.19,"rocks"
86,87772,"causals","rocks dissolve",0,"makes CATEGORY dissolve","[85, 75, 15, 75, u'?', 10, 90, 90, 80, 10, 20]",4,10,"prior",-99,"compound","make the rocks dissolve","weak_or_strong","lorches",0.79,"rocks"
86,87772,"causals","rocks dissolve",0,"makes CATEGORY dissolve","[85, 75, 15, 75, u'?', 10, 90, 90, 80, 10, 20]",4,10,"prior",-99,"compound","make the rocks dissolve","weak_or_strong","lorches",0.67,"rocks"
87,104049,"causals","rocks dissolve",0,"makes CATEGORY dissolve","[0, 20, 0, 10, 0, 0, 15, u'?', 0, 20, 0]",7,10,"prior",-99,"compound","make the rocks dissolve","rare_weak","zorbs",0,"rocks"
87,104049,"causals","rocks dissolve",0,"makes CATEGORY dissolve","[0, 20, 0, 10, 0, 0, 15, u'?', 0, 20, 0]",7,10,"prior",-99,"compound","make the rocks dissolve","rare_weak","zorbs",0,"rocks"
87,104049,"causals","rocks dissolve",0,"makes CATEGORY dissolve","[0, 20, 0, 10, 0, 0, 15, u'?', 0, 20, 0]",7,10,"prior",-99,"compound","make the rocks dissolve","rare_weak","zorbs",0.12,"rocks"
87,104049,"causals","rocks dissolve",0,"makes CATEGORY dissolve","[0, 20, 0, 10, 0, 0, 15, u'?', 0, 20, 0]",7,10,"prior",-99,"compound","make the rocks dissolve","rare_weak","zorbs",0,"rocks"
87,104049,"causals","rocks dissolve",0,"makes CATEGORY dissolve","[0, 20, 0, 10, 0, 0, 15, u'?', 0, 20, 0]",7,10,"prior",-99,"compound","make the rocks dissolve","rare_weak","zorbs",0.07,"rocks"
88,56383,"causals","rocks dissolve",0,"makes CATEGORY dissolve","[75, 65, u'?', 65, 75, 80, 90, 80, 75, 80, 90]",2,10,"prior",-99,"compound","make the rocks dissolve","common_strong","thups",0.72,"rocks"
88,56383,"causals","rocks dissolve",0,"makes CATEGORY dissolve","[75, 65, u'?', 65, 75, 80, 90, 80, 75, 80, 90]",2,10,"prior",-99,"compound","make the rocks dissolve","common_strong","thups",0.82,"rocks"
88,56383,"causals","rocks dissolve",0,"makes CATEGORY dissolve","[75, 65, u'?', 65, 75, 80, 90, 80, 75, 80, 90]",2,10,"prior",-99,"compound","make the rocks dissolve","common_strong","thups",0.7,"rocks"
88,56383,"causals","rocks dissolve",0,"makes CATEGORY dissolve","[75, 65, u'?', 65, 75, 80, 90, 80, 75, 80, 90]",2,10,"prior",-99,"compound","make the rocks dissolve","common_strong","thups",0.86,"rocks"
88,56383,"causals","rocks dissolve",0,"makes CATEGORY dissolve","[75, 65, u'?', 65, 75, 80, 90, 80, 75, 80, 90]",2,10,"prior",-99,"compound","make the rocks dissolve","common_strong","thups",0.92,"rocks"
89,52750,"causals","animal make sleepy",0,"makes CATEGORY sleepy","[85, 75, 15, u'?', 75, 10, 90, 90, 80, 10, 20]",3,10,"prior",-99,"herb","make the animals sleepy","weak_or_strong","daiths",0.68,"animals"
89,52750,"causals","animal make sleepy",0,"makes CATEGORY sleepy","[85, 75, 15, u'?', 75, 10, 90, 90, 80, 10, 20]",3,10,"prior",-99,"herb","make the animals sleepy","weak_or_strong","daiths",0.52,"animals"
89,52750,"causals","animal make sleepy",0,"makes CATEGORY sleepy","[85, 75, 15, u'?', 75, 10, 90, 90, 80, 10, 20]",3,10,"prior",-99,"herb","make the animals sleepy","weak_or_strong","daiths",0.57,"animals"
89,52750,"causals","animal make sleepy",0,"makes CATEGORY sleepy","[85, 75, 15, u'?', 75, 10, 90, 90, 80, 10, 20]",3,10,"prior",-99,"herb","make the animals sleepy","weak_or_strong","daiths",0.6,"animals"
89,52750,"causals","animal make sleepy",0,"makes CATEGORY sleepy","[85, 75, 15, u'?', 75, 10, 90, 90, 80, 10, 20]",3,10,"prior",-99,"herb","make the animals sleepy","weak_or_strong","daiths",0.47,"animals"
90,63406,"causals","plant grow indoors",0,"makes CATEGORY grow tall","[75, 65, 65, 75, 80, 90, 80, 75, u'?', 80, 90]",8,10,"prior",-99,"fertilizer","make the plants grow tall","common_strong","pangolins",0.68,"plants"
90,63406,"causals","plant grow indoors",0,"makes CATEGORY grow tall","[75, 65, 65, 75, 80, 90, 80, 75, u'?', 80, 90]",8,10,"prior",-99,"fertilizer","make the plants grow tall","common_strong","pangolins",0.78,"plants"
90,63406,"causals","plant grow indoors",0,"makes CATEGORY grow tall","[75, 65, 65, 75, 80, 90, 80, 75, u'?', 80, 90]",8,10,"prior",-99,"fertilizer","make the plants grow tall","common_strong","pangolins",0.61,"plants"
90,63406,"causals","plant grow indoors",0,"makes CATEGORY grow tall","[75, 65, 65, 75, 80, 90, 80, 75, u'?', 80, 90]",8,10,"prior",-99,"fertilizer","make the plants grow tall","common_strong","pangolins",0.68,"plants"
90,63406,"causals","plant grow indoors",0,"makes CATEGORY grow tall","[75, 65, 65, 75, 80, 90, 80, 75, u'?', 80, 90]",8,10,"prior",-99,"fertilizer","make the plants grow tall","common_strong","pangolins",0.75,"plants"
91,55434,"causals","rocks dissolve",0,"makes CATEGORY dissolve","[85, u'?', 75, 15, 75, 10, 90, 90, 80, 10, 20]",1,10,"prior",-99,"compound","make the rocks dissolve","weak_or_strong","dorbs",0.23,"rocks"
91,55434,"causals","rocks dissolve",0,"makes CATEGORY dissolve","[85, u'?', 75, 15, 75, 10, 90, 90, 80, 10, 20]",1,10,"prior",-99,"compound","make the rocks dissolve","weak_or_strong","dorbs",0.36,"rocks"
91,55434,"causals","rocks dissolve",0,"makes CATEGORY dissolve","[85, u'?', 75, 15, 75, 10, 90, 90, 80, 10, 20]",1,10,"prior",-99,"compound","make the rocks dissolve","weak_or_strong","dorbs",0.42,"rocks"
91,55434,"causals","rocks dissolve",0,"makes CATEGORY dissolve","[85, u'?', 75, 15, 75, 10, 90, 90, 80, 10, 20]",1,10,"prior",-99,"compound","make the rocks dissolve","weak_or_strong","dorbs",0.43,"rocks"
91,55434,"causals","rocks dissolve",0,"makes CATEGORY dissolve","[85, u'?', 75, 15, 75, 10, 90, 90, 80, 10, 20]",1,10,"prior",-99,"compound","make the rocks dissolve","weak_or_strong","dorbs",0.46,"rocks"
92,89732,"causals","plant grow indoors",0,"makes CATEGORY grow tall","[10, 20, 15, 10, u'?', 15, 20, 10, 10, 15, 20]",4,10,"prior",-99,"fertilizer","make the plants grow tall","common_weak","lorches",0.11,"plants"
92,89732,"causals","plant grow indoors",0,"makes CATEGORY grow tall","[10, 20, 15, 10, u'?', 15, 20, 10, 10, 15, 20]",4,10,"prior",-99,"fertilizer","make the plants grow tall","common_weak","lorches",0.16,"plants"
92,89732,"causals","plant grow indoors",0,"makes CATEGORY grow tall","[10, 20, 15, 10, u'?', 15, 20, 10, 10, 15, 20]",4,10,"prior",-99,"fertilizer","make the plants grow tall","common_weak","lorches",0.11,"plants"
92,89732,"causals","plant grow indoors",0,"makes CATEGORY grow tall","[10, 20, 15, 10, u'?', 15, 20, 10, 10, 15, 20]",4,10,"prior",-99,"fertilizer","make the plants grow tall","common_weak","lorches",0.11,"plants"
92,89732,"causals","plant grow indoors",0,"makes CATEGORY grow tall","[10, 20, 15, 10, u'?', 15, 20, 10, 10, 15, 20]",4,10,"prior",-99,"fertilizer","make the plants grow tall","common_weak","lorches",0.22,"plants"
93,184835,"causals","animal make sleepy",0,"makes CATEGORY sleepy","[75, 65, 65, 75, 80, 90, 80, 75, u'?', 80, 90]",8,10,"prior",-99,"herb","make the animals sleepy","common_strong","kazzes",0.71,"animals"
93,184835,"causals","animal make sleepy",0,"makes CATEGORY sleepy","[75, 65, 65, 75, 80, 90, 80, 75, u'?', 80, 90]",8,10,"prior",-99,"herb","make the animals sleepy","common_strong","kazzes",0.58,"animals"
93,184835,"causals","animal make sleepy",0,"makes CATEGORY sleepy","[75, 65, 65, 75, 80, 90, 80, 75, u'?', 80, 90]",8,10,"prior",-99,"herb","make the animals sleepy","common_strong","kazzes",0.79,"animals"
93,184835,"causals","animal make sleepy",0,"makes CATEGORY sleepy","[75, 65, 65, 75, 80, 90, 80, 75, u'?', 80, 90]",8,10,"prior",-99,"herb","make the animals sleepy","common_strong","kazzes",0.79,"animals"
93,184835,"causals","animal make sleepy",0,"makes CATEGORY sleepy","[75, 65, 65, 75, 80, 90, 80, 75, u'?', 80, 90]",8,10,"prior",-99,"herb","make the animals sleepy","common_strong","kazzes",0.7,"animals"
94,114934,"causals","animal make sleepy",0,"makes CATEGORY sleepy","[75, 65, 65, 75, u'?', 80, 90, 80, 75, 80, 90]",4,10,"prior",-99,"herb","make the animals sleepy","common_strong","reesles",0.58,"animals"
94,114934,"causals","animal make sleepy",0,"makes CATEGORY sleepy","[75, 65, 65, 75, u'?', 80, 90, 80, 75, 80, 90]",4,10,"prior",-99,"herb","make the animals sleepy","common_strong","reesles",0.44,"animals"
94,114934,"causals","animal make sleepy",0,"makes CATEGORY sleepy","[75, 65, 65, 75, u'?', 80, 90, 80, 75, 80, 90]",4,10,"prior",-99,"herb","make the animals sleepy","common_strong","reesles",0.67,"animals"
94,114934,"causals","animal make sleepy",0,"makes CATEGORY sleepy","[75, 65, 65, 75, u'?', 80, 90, 80, 75, 80, 90]",4,10,"prior",-99,"herb","make the animals sleepy","common_strong","reesles",0.44,"animals"
94,114934,"causals","animal make sleepy",0,"makes CATEGORY sleepy","[75, 65, 65, 75, u'?', 80, 90, 80, 75, 80, 90]",4,10,"prior",-99,"herb","make the animals sleepy","common_strong","reesles",0.69,"animals"
95,117119,"causals","animal make sleepy",0,"makes CATEGORY sleepy","[10, 20, 15, 10, u'?', 15, 20, 10, 10, 15, 20]",4,10,"prior",-99,"herb","make the animals sleepy","common_weak","krivels",0.07,"animals"
95,117119,"causals","animal make sleepy",0,"makes CATEGORY sleepy","[10, 20, 15, 10, u'?', 15, 20, 10, 10, 15, 20]",4,10,"prior",-99,"herb","make the animals sleepy","common_weak","krivels",0.08,"animals"
95,117119,"causals","animal make sleepy",0,"makes CATEGORY sleepy","[10, 20, 15, 10, u'?', 15, 20, 10, 10, 15, 20]",4,10,"prior",-99,"herb","make the animals sleepy","common_weak","krivels",0.05,"animals"
95,117119,"causals","animal make sleepy",0,"makes CATEGORY sleepy","[10, 20, 15, 10, u'?', 15, 20, 10, 10, 15, 20]",4,10,"prior",-99,"herb","make the animals sleepy","common_weak","krivels",0.1,"animals"
95,117119,"causals","animal make sleepy",0,"makes CATEGORY sleepy","[10, 20, 15, 10, u'?', 15, 20, 10, 10, 15, 20]",4,10,"prior",-99,"herb","make the animals sleepy","common_weak","krivels",0.04,"animals"
96,93776,"causals","rocks dissolve",0,"makes CATEGORY dissolve","[75, 0, u'?', 65, 0, 80, 90, 0, 0, 80, 90]",2,10,"prior",-99,"compound","make the rocks dissolve","rare_strong","taifels",0.71,"rocks"
96,93776,"causals","rocks dissolve",0,"makes CATEGORY dissolve","[75, 0, u'?', 65, 0, 80, 90, 0, 0, 80, 90]",2,10,"prior",-99,"compound","make the rocks dissolve","rare_strong","taifels",0,"rocks"
96,93776,"causals","rocks dissolve",0,"makes CATEGORY dissolve","[75, 0, u'?', 65, 0, 80, 90, 0, 0, 80, 90]",2,10,"prior",-99,"compound","make the rocks dissolve","rare_strong","taifels",0.58,"rocks"
96,93776,"causals","rocks dissolve",0,"makes CATEGORY dissolve","[75, 0, u'?', 65, 0, 80, 90, 0, 0, 80, 90]",2,10,"prior",-99,"compound","make the rocks dissolve","rare_strong","taifels",0.71,"rocks"
96,93776,"causals","rocks dissolve",0,"makes CATEGORY dissolve","[75, 0, u'?', 65, 0, 80, 90, 0, 0, 80, 90]",2,10,"prior",-99,"compound","make the rocks dissolve","rare_strong","taifels",0,"rocks"
