"workerid","category","trial_type","trial_num","past_interval","extra_sentence","gender","character","past_freq","item","rt","response","condition"
0,"hobby","predictive",1,"5 years","Yesterday, Jack turned 80 and gave up all strenuous physical exercise because his doctor said it would be deadly.","male","Jack",3,"climbs mountains",15802,"2","preventative"
0,"hobby","predictive",2,"year","Yesterday, Rebecca remembered how much fun that was and bought a new tennis racket.","female","Rebecca",3,"plays tennis",6223,"2","enabling"
0,"hobby","predictive",3,"year","","female","Melinda",3,"hikes",2742,"2","baseline"
0,"employment","predictive",4,"year","Yesterday, Robert became fed up with the poetry world and decided to never write poems again.","male","Robert",3,"writes poems",2076,"2","preventative"
0,"employment","predictive",5,"5 years","Yesterday, Stephen researched a new soup kitchen in the area and is going to volunteer with them.","male","Stephen",3,"volunteers for soup kitchens",3619,"2","enabling"
0,"clothing","predictive",6,"month","","female","Kristina",3,"wears a suit",2585,"2","baseline"
0,"food","predictive",7,"month","Yesterday, Martin developed a caffeine allergy and decided to give up all caffeine.","male","Martin",3,"drinks coffee",2488,"1","preventative"
0,"hobby","predictive",8,"year","Yesterday, Kim developed crippling arthritis in her hands and no longer can play musical instruments.","female","Kim",3,"plays the banjo",2509,"2","preventative"
0,"food","predictive",9,"year","Yesterday, Jackie wanted to get high and bought some cocaine.","female","Jackie",3,"does cocaine",3176,"2","enabling"
0,"food","predictive",10,"year","Yesterday, Amber developed a peanut allergy.","female","Amber",3,"eats peanut butter",3276,"2","preventative"
0,"employment","predictive",11,"5 years","Yesterday, Shannon researched a new political candidate in the area and is going to volunteer with them.","female","Shannon",3,"volunteers for political campaigns",2702,"2","enabling"
0,"food","predictive",12,"year","","female","Kelly",3,"smokes marijuana",1935,"2","baseline"
0,"employment","predictive",13,"5 years","Yesterday, Tim finished an MFA program and quit his other job to focus on writing novels.","male","Tim",3,"writes novels",2824,"1","enabling"
0,"entertainment","predictive",14,"year","Yesterday, Kyle learned about all the corruption in professional sports and no longer can watch it.","male","Kyle",3,"watches professional football",1709,"2","preventative"
0,"food","predictive",15,"5 years","","male","Christopher",3,"eats caviar",3412,"2","baseline"
0,"food","predictive",16,"month","Yesterday, Daniel quit smoking cigarettes.","male","Daniel",3,"smokes cigarettes",3343,"2","preventative"
0,"food","predictive",17,"month","","female","Tina",3,"drinks beer",2056,"2","baseline"
0,"employment","predictive",18,"5 years","Yesterday, Esther learned a new trick to distract shopkeepers.","female","Esther",3,"steals chewing gum",2202,"2","enabling"
0,"hobby","predictive",19,"2 months","","male","Lewis",3,"runs",2369,"3","baseline"
0,"employment","predictive",20,"5 years","Yesterday, Elisa learned a new technique for breaking into cars.","female","Elisa",3,"steals cars",3807,"3","enabling"
0,"entertainment","predictive",21,"2 years","","male","Ben",3,"watches space launches",2330,"3","baseline"
1,"employment","predictive",1,"5 years","","male","Lucas",3,"writes novels",9898,"4","baseline"
1,"hobby","predictive",2,"year","Yesterday, Jackie developed crippling arthritis in her hands and no longer can play musical instruments.","female","Jackie",3,"plays the banjo",6227,"0","preventative"
1,"employment","predictive",3,"5 years","Yesterday, Stephen researched a new soup kitchen in the area and is going to volunteer with them.","male","Stephen",3,"volunteers for soup kitchens",9296,"10","enabling"
1,"food","predictive",4,"year","Yesterday, Stephanie learned about the dietary benefits of eating peanut butter and bought a jar at the supermaket.","female","Stephanie",3,"eats peanut butter",9294,"20","enabling"
1,"employment","predictive",5,"5 years","Yesterday, Bridgette grew disillusioned with the political system and wants nothing to do with it anymore.","female","Bridgette",3,"volunteers for political campaigns",5833,"0","preventative"
1,"hobby","predictive",6,"2 months","Yesterday, Tim remembered how much fun those times were and bought a new pair of running shoes.","male","Tim",3,"runs",8344,"6","enabling"
1,"employment","predictive",7,"5 years","Yesterday, Sophia got caught and went through a radical transformation, vowing to never break the law again.","female","Sophia",3,"steals cars",4047,"0","preventative"
1,"food","predictive",8,"5 years","Yesterday, Ben developed a seafood allergy.","male","Ben",3,"eats caviar",4801,"0","preventative"
1,"employment","predictive",9,"year","Yesterday, Alexander became fed up with the poetry world and decided to never write poems again.","male","Alexander",3,"writes poems",3843,"0","preventative"
1,"food","predictive",10,"month","","female","Tina",3,"drinks beer",4644,"3","baseline"
1,"hobby","predictive",11,"year","Yesterday, Esther remembered how much fun those times were and bought a lot of new hiking gear.","female","Esther",3,"hikes",5074,"6","enabling"
1,"food","predictive",12,"year","Yesterday, Amber wanted to get high and bought some cocaine.","female","Amber",3,"does cocaine",7085,"20","enabling"
1,"food","predictive",13,"month","","male","George",3,"drinks coffee",3367,"3","baseline"
1,"entertainment","predictive",14,"2 years","Yesterday, Scott remembered how much enjoyable that was and researched all of the space launches in the next year within driving distance.","male","Scott",3,"watches space launches",6648,"5","enabling"
1,"food","predictive",15,"year","","male","Ted",3,"smokes marijuana",2995,"3","baseline"
1,"food","predictive",16,"month","Yesterday, Stephen wanted a smoke and bought a pack of cigarettes.","male","Stephen",3,"smokes cigarettes",7204,"10","enabling"
1,"entertainment","predictive",17,"year","Yesterday, Laura learned about all the corruption in professional sports and no longer can watch it.","female","Laura",3,"watches professional football",3952,"0","preventative"
1,"clothing","predictive",18,"month","","female","Ashley",3,"wears a suit",3017,"3","baseline"
1,"employment","predictive",19,"5 years","","female","Alicia",3,"steals chewing gum",3909,"3","baseline"
1,"hobby","predictive",20,"5 years","Yesterday, Tom turned 80 and gave up all strenuous physical exercise because his doctor said it would be deadly.","male","Tom",3,"climbs mountains",5602,"0","preventative"
1,"hobby","predictive",21,"year","","female","Melinda",3,"plays tennis",3994,"3","baseline"
2,"hobby","predictive",1,"5 years","Yesterday, Elisa turned 80 and gave up all strenuous physical exercise because her doctor said it would be deadly.","female","Elisa",3,"climbs mountains",33000,"0","preventative"
2,"food","predictive",2,"month","","female","Michelle",3,"smokes cigarettes",5197,"3","baseline"
2,"hobby","predictive",3,"year","Yesterday, Tina developed crippling arthritis in both elbows and can only move her arms extremely slowly.","female","Tina",3,"plays tennis",5379,"0","preventative"
2,"food","predictive",4,"month","","female","Kim",3,"drinks beer",3271,"3","baseline"
2,"food","predictive",5,"month","Yesterday, Kristina wanted a morning jolt and bought a pound of fresh roasted coffee.","female","Kristina",3,"drinks coffee",6460,"4","enabling"
2,"employment","predictive",6,"5 years","Yesterday, Hillary finished an MFA program and quit her other job to focus on writing novels.","female","Hillary",3,"writes novels",6986,"7","enabling"
2,"hobby","predictive",7,"year","","male","Ted",3,"plays the banjo",2569,"3","baseline"
2,"employment","predictive",8,"5 years","","female","Claire",3,"steals chewing gum",2544,"3","baseline"
2,"entertainment","predictive",9,"year","Yesterday, David remembered how much enjoyable that was and upgraded his cable to have access to all professional football games.","male","David",3,"watches professional football",10393,"20","enabling"
2,"employment","predictive",10,"year","","male","William",3,"writes poems",1996,"3","baseline"
2,"food","predictive",11,"year","Yesterday, Ashley wanted to get high and bought some cocaine.","female","Ashley",3,"does cocaine",7778,"5","enabling"
2,"food","predictive",12,"5 years","Yesterday, Lewis developed a seafood allergy.","male","Lewis",3,"eats caviar",5169,"1","preventative"
2,"employment","predictive",13,"5 years","Yesterday, Natalie grew disillusioned with the political system and wants nothing to do with it anymore.","female","Natalie",3,"volunteers for political campaigns",4520,"0","preventative"
2,"hobby","predictive",14,"year","","male","Fred",3,"hikes",2151,"3","baseline"
2,"food","predictive",15,"year","Yesterday, Esther learned about the dietary benefits of eating peanut butter and bought a jar at the supermaket.","female","Esther",3,"eats peanut butter",4439,"6","enabling"
2,"hobby","predictive",16,"2 months","Yesterday, Linda was in a car accident and became permanently paralyzed from the waist down.","female","Linda",3,"runs",4229,"0","preventative"
2,"food","predictive",17,"year","Yesterday, Maya wanted to get high and bought some marijuana.","female","Maya",3,"smokes marijuana",5813,"5","enabling"
2,"entertainment","predictive",18,"2 years","","female","Bridgette",3,"watches space launches",3241,"3","baseline"
2,"employment","predictive",19,"5 years","Yesterday, Doug grew disillusioned with the soup kitchen system and wants nothing to do with it anymore.","male","Doug",3,"volunteers for soup kitchens",3993,"0","preventative"
2,"employment","predictive",20,"5 years","Yesterday, Melinda learned a new technique for breaking into cars.","female","Melinda",3,"steals cars",5306,"8","enabling"
2,"clothing","predictive",21,"month","Yesterday, Tom got fired from his job on Wall Street and now works in a pizza parlor.","male","Tom",3,"wears a suit",4969,"0","preventative"
3,"food","predictive",1,"year","Yesterday, Elizabeth realized she is severely allergic to cocaine and will no longer do it.","female","Elizabeth",3,"does cocaine",13132,"0","preventative"
3,"entertainment","predictive",2,"year","Yesterday, John remembered how much enjoyable that was and upgraded his cable to have access to all professional football games.","male","John",3,"watches professional football",14645,"25","enabling"
3,"hobby","predictive",3,"year","Yesterday, Stephanie remembered how much fun those times were and bought a lot of new hiking gear.","female","Stephanie",3,"hikes",7307,"15","enabling"
3,"food","predictive",4,"month","Yesterday, Bridgette developed a caffeine allergy and decided to give up all caffeine.","female","Bridgette",3,"drinks coffee",5489,"0","preventative"
3,"employment","predictive",5,"year","Yesterday, Derrick became fed up with the poetry world and decided to never write poems again.","male","Derrick",3,"writes poems",5368,"0","preventative"
3,"employment","predictive",6,"5 years","Yesterday, Robert got caught and went through a radical transformation, vowing to never break the law again.","male","Robert",3,"steals cars",6799,"0","preventative"
3,"hobby","predictive",7,"5 years","","female","Kristina",3,"climbs mountains",5833,"1","baseline"
3,"food","predictive",8,"5 years","","female","Jessica",3,"eats caviar",24324,"2","baseline"
3,"clothing","predictive",9,"month","Yesterday, Maya got a high paying job on Wall Street.","female","Maya",3,"wears a suit",7459,"15","enabling"
3,"hobby","predictive",10,"2 months","","male","Kyle",3,"runs",6096,"2","baseline"
3,"employment","predictive",11,"5 years","Yesterday, Ronald researched a new political candidate in the area and is going to volunteer with them.","male","Ronald",3,"volunteers for political campaigns",7835,"5","enabling"
3,"employment","predictive",12,"5 years","Yesterday, Theresa finished an MFA program and quit her other job to focus on writing novels.","female","Theresa",3,"writes novels",8631,"5","enabling"
3,"hobby","predictive",13,"year","","male","Vince",3,"plays tennis",8326,"3","baseline"
3,"food","predictive",14,"month","","male","Lucas",3,"smokes cigarettes",27903,"5","baseline"
3,"entertainment","predictive",15,"2 years","Yesterday, Veronica remembered how much enjoyable that was and researched all of the space launches in the next year within driving distance.","female","Veronica",3,"watches space launches",10912,"8","enabling"
3,"food","predictive",16,"month","Yesterday, David gave up alcohol and entered into Alcoholics Anonymous.","male","David",3,"drinks beer",4999,"0","preventative"
3,"employment","predictive",17,"5 years","Yesterday, Sophia grew disillusioned with the soup kitchen system and wants nothing to do with it anymore.","female","Sophia",3,"volunteers for soup kitchens",7753,"0","preventative"
3,"hobby","predictive",18,"year","Yesterday, Laura developed crippling arthritis in her hands and no longer can play musical instruments.","female","Laura",3,"plays the banjo",25597,"0","preventative"
3,"food","predictive",19,"year","","female","Esther",3,"smokes marijuana",5126,"5","baseline"
3,"employment","predictive",20,"5 years","Yesterday, Ted learned a new trick to distract shopkeepers.","male","Ted",3,"steals chewing gum",8407,"5","enabling"
3,"food","predictive",21,"year","","male","Gabriel",3,"eats peanut butter",5160,"3","baseline"
4,"food","predictive",1,"year","","male","Ronald",3,"does cocaine",6206,"3","baseline"
4,"food","predictive",2,"month","Yesterday, Kristina wanted a smoke and bought a pack of cigarettes.","female","Kristina",3,"smokes cigarettes",4958,"2","enabling"
4,"hobby","predictive",3,"2 months","Yesterday, Amber remembered how much fun those times were and bought a new pair of running shoes.","female","Amber",3,"runs",2644,"3","enabling"
4,"hobby","predictive",4,"5 years","","female","Rebecca",3,"climbs mountains",7074,"3","baseline"
4,"food","predictive",5,"year","","female","Natalie",3,"smokes marijuana",3192,"3","baseline"
4,"food","predictive",6,"month","Yesterday, Veronica developed a caffeine allergy and decided to give up all caffeine.","female","Veronica",3,"drinks coffee",3776,"3","preventative"
4,"entertainment","predictive",7,"year","Yesterday, Elisa learned about all the corruption in professional sports and no longer can watch it.","female","Elisa",3,"watches professional football",5024,"3","preventative"
4,"employment","predictive",8,"5 years","Yesterday, Michael grew disillusioned with the soup kitchen system and wants nothing to do with it anymore.","male","Michael",3,"volunteers for soup kitchens",7650,"0","preventative"
4,"food","predictive",9,"month","Yesterday, Kim gave up alcohol and entered into Alcoholics Anonymous.","female","Kim",3,"drinks beer",5775,"0","preventative"
4,"employment","predictive",10,"5 years","","male","Seth",3,"steals chewing gum",5865,"3","baseline"
4,"clothing","predictive",11,"month","","female","Nicole",3,"wears a suit",3255,"3","baseline"
4,"employment","predictive",12,"5 years","","female","Jackie",3,"writes novels",3814,"3","baseline"
4,"food","predictive",13,"5 years","Yesterday, Janet developed a seafood allergy.","female","Janet",3,"eats caviar",3706,"0","preventative"
4,"hobby","predictive",14,"year","Yesterday, Scott remembered how much fun that was and bought a new tennis racket.","male","Scott",3,"plays tennis",6854,"8","enabling"
4,"food","predictive",15,"year","Yesterday, Tim learned about the dietary benefits of eating peanut butter and bought a jar at the supermaket.","male","Tim",3,"eats peanut butter",7408,"7","enabling"
4,"employment","predictive",16,"5 years","Yesterday, Julia grew disillusioned with the political system and wants nothing to do with it anymore.","female","Julia",3,"volunteers for political campaigns",4787,"0","preventative"
4,"employment","predictive",17,"year","Yesterday, William finished an MFA program and quit his other job to focus on writing poems.","male","William",3,"writes poems",4120,"0","enabling"
4,"hobby","predictive",18,"year","","male","Stephen",3,"plays the banjo",3207,"3","baseline"
4,"entertainment","predictive",19,"2 years","Yesterday, John went through a radical transformation and now it is against his belief to witness anything relating to space travel.","male","John",3,"watches space launches",4399,"0","preventative"
4,"hobby","predictive",20,"year","Yesterday, Anthony remembered how much fun those times were and bought a lot of new hiking gear.","male","Anthony",3,"hikes",5273,"9","enabling"
4,"employment","predictive",21,"5 years","Yesterday, Doug learned a new technique for breaking into cars.","male","Doug",3,"steals cars",6238,"9","enabling"
5,"employment","predictive",1,"year","","male","Robert",3,"writes poems",3209,"3","baseline"
5,"employment","predictive",2,"5 years","Yesterday, George finished an MFA program and quit his other job to focus on writing novels.","male","George",3,"writes novels",3893,"3","enabling"
5,"employment","predictive",3,"5 years","Yesterday, Bridgette grew disillusioned with the soup kitchen system and wants nothing to do with it anymore.","female","Bridgette",3,"volunteers for soup kitchens",1882,"3","preventative"
5,"food","predictive",4,"month","","male","Tom",3,"drinks beer",3482,"3","baseline"
5,"hobby","predictive",5,"2 months","Yesterday, Tina was in a car accident and became permanently paralyzed from the waist down.","female","Tina",3,"runs",6754,"0","preventative"
5,"hobby","predictive",6,"year","Yesterday, Gabriel remembered how much fun that was and bought a new tennis racket.","male","Gabriel",3,"plays tennis",4135,"3","enabling"
5,"hobby","predictive",7,"year","Yesterday, Greg remembered how much fun those times were and bought a lot of new hiking gear.","male","Greg",3,"hikes",4325,"4","enabling"
5,"employment","predictive",8,"5 years","Yesterday, Elisa learned a new trick to distract shopkeepers.","female","Elisa",3,"steals chewing gum",4016,"5","enabling"
5,"entertainment","predictive",9,"year","Yesterday, Julia learned about all the corruption in professional sports and no longer can watch it.","female","Julia",3,"watches professional football",3335,"0","preventative"
5,"food","predictive",10,"month","Yesterday, Fred quit smoking cigarettes.","male","Fred",3,"smokes cigarettes",3136,"0","preventative"
5,"hobby","predictive",11,"year","Yesterday, Ben developed crippling arthritis in his hands and no longer can play musical instruments.","male","Ben",3,"plays the banjo",3933,"0","preventative"
5,"entertainment","predictive",12,"2 years","Yesterday, William remembered how much enjoyable that was and researched all of the space launches in the next year within driving distance.","male","William",3,"watches space launches",6391,"3","enabling"
5,"food","predictive",13,"year","","female","Theresa",3,"does cocaine",2056,"3","baseline"
5,"food","predictive",14,"year","Yesterday, Alicia realized she is severely allergic to marijuana and will no longer smoke it.","female","Alicia",3,"smokes marijuana",3090,"0","preventative"
5,"employment","predictive",15,"5 years","","male","David",3,"steals cars",4608,"2","baseline"
5,"food","predictive",16,"year","","female","Maya",3,"eats peanut butter",4845,"3","baseline"
5,"clothing","predictive",17,"month","","female","Laura",3,"wears a suit",9168,"2","baseline"
5,"employment","predictive",18,"5 years","Yesterday, Amber grew disillusioned with the political system and wants nothing to do with it anymore.","female","Amber",3,"volunteers for political campaigns",4868,"0","preventative"
5,"food","predictive",19,"5 years","Yesterday, Michelle learned about the dietary benefits of eating caviar and bought a jar at the supermaket.","female","Michelle",3,"eats caviar",10633,"5","enabling"
5,"food","predictive",20,"month","","male","Vince",3,"drinks coffee",2797,"3","baseline"
5,"hobby","predictive",21,"5 years","Yesterday, Alexander remembered how much fun that was bought a lot of new mountain climbing gear.","male","Alexander",3,"climbs mountains",3056,"4","enabling"
6,"employment","predictive",1,"year","Yesterday, Sophia finished an MFA program and quit her other job to focus on writing poems.","female","Sophia",3,"writes poems",22049,"100","enabling"
6,"hobby","predictive",2,"year","","male","Stephen",3,"plays the banjo",7213,"3","baseline"
6,"employment","predictive",3,"5 years","","female","Hillary",3,"steals cars",7532,"4","baseline"
6,"entertainment","predictive",4,"year","Yesterday, Jessica learned about all the corruption in professional sports and no longer can watch it.","female","Jessica",3,"watches professional football",9270,"0","preventative"
6,"food","predictive",5,"month","","male","Tom",3,"smokes cigarettes",6759,"3","baseline"
6,"food","predictive",6,"5 years","Yesterday, Seth developed a seafood allergy.","male","Seth",3,"eats caviar",6072,"0","preventative"
6,"food","predictive",7,"year","","male","Scott",3,"eats peanut butter",5270,"3","baseline"
6,"clothing","predictive",8,"month","Yesterday, Julia got a high paying job on Wall Street.","female","Julia",3,"wears a suit",10697,"21","enabling"
6,"hobby","predictive",9,"year","Yesterday, Doug remembered how much fun those times were and bought a lot of new hiking gear.","male","Doug",3,"hikes",10195,"6","enabling"
6,"hobby","predictive",10,"5 years","Yesterday, Lee turned 80 and gave up all strenuous physical exercise because his doctor said it would be deadly.","male","Lee",3,"climbs mountains",13241,"0","preventative"
6,"employment","predictive",11,"5 years","Yesterday, Daniel got caught and vowed to never break the law again.","male","Daniel",3,"steals chewing gum",5158,"0","preventative"
6,"hobby","predictive",12,"year","Yesterday, Josh developed crippling arthritis in both elbows and can only move his arms extremely slowly.","male","Josh",3,"plays tennis",5920,"0","preventative"
6,"food","predictive",13,"month","Yesterday, Alexander gave up alcohol and entered into Alcoholics Anonymous.","male","Alexander",3,"drinks beer",5808,"0","preventative"
6,"food","predictive",14,"year","Yesterday, Robert wanted to get high and bought some marijuana.","male","Robert",3,"smokes marijuana",7422,"4","enabling"
6,"entertainment","predictive",15,"2 years","","female","Theresa",3,"watches space launches",8316,"3","baseline"
6,"employment","predictive",16,"5 years","Yesterday, Monica grew disillusioned with the political system and wants nothing to do with it anymore.","female","Monica",3,"volunteers for political campaigns",6486,"0","preventative"
6,"employment","predictive",17,"5 years","Yesterday, Lewis finished an MFA program and quit his other job to focus on writing novels.","male","Lewis",3,"writes novels",10660,"6","enabling"
6,"food","predictive",18,"year","Yesterday, Stephen wanted to get high and bought some cocaine.","male","Stephen",3,"does cocaine",5930,"3","enabling"
6,"hobby","predictive",19,"2 months","","male","Cameron",3,"runs",6203,"3","baseline"
6,"food","predictive",20,"month","Yesterday, Tina wanted a morning jolt and bought a pound of fresh roasted coffee.","female","Tina",3,"drinks coffee",24215,"20","enabling"
6,"employment","predictive",21,"5 years","","female","Melinda",3,"volunteers for soup kitchens",5121,"3","baseline"
7,"food","predictive",1,"month","","female","Kristina",3,"drinks coffee",5928,"3","baseline"
7,"employment","predictive",2,"5 years","","male","Tom",3,"volunteers for soup kitchens",5621,"3","baseline"
7,"food","predictive",3,"month","Yesterday, Ronald quit smoking cigarettes.","male","Ronald",3,"smokes cigarettes",3694,"4","preventative"
7,"entertainment","predictive",4,"year","Yesterday, Kyle learned about all the corruption in professional sports and no longer can watch it.","male","Kyle",3,"watches professional football",45087,"3","preventative"
7,"food","predictive",5,"5 years","Yesterday, William learned about the dietary benefits of eating caviar and bought a jar at the supermaket.","male","William",3,"eats caviar",2192,"3","enabling"
7,"food","predictive",6,"year","Yesterday, Angela wanted to get high and bought some cocaine.","female","Angela",3,"does cocaine",2613,"5","enabling"
7,"hobby","predictive",7,"5 years","Yesterday, Jack turned 80 and gave up all strenuous physical exercise because his doctor said it would be deadly.","male","Jack",3,"climbs mountains",7542,"3","preventative"
7,"employment","predictive",8,"year","Yesterday, Eric finished an MFA program and quit his other job to focus on writing poems.","male","Eric",3,"writes poems",9819,"3","enabling"
7,"hobby","predictive",9,"year","","male","Ted",3,"plays tennis",2137,"3","baseline"
7,"clothing","predictive",10,"month","Yesterday, Linda got a high paying job on Wall Street.","female","Linda",3,"wears a suit",4051,"3","enabling"
7,"entertainment","predictive",11,"2 years","Yesterday, Kathleen went through a radical transformation and now it is against her belief to witness anything relating to space travel.","female","Kathleen",3,"watches space launches",4224,"3","preventative"
7,"food","predictive",12,"month","","male","Stephen",3,"drinks beer",2743,"4","baseline"
7,"hobby","predictive",13,"year","Yesterday, Crystal remembered how much fun those times were and bought a lot of new hiking gear.","female","Crystal",3,"hikes",3000,"3","enabling"
7,"hobby","predictive",14,"year","Yesterday, Monica developed crippling arthritis in her hands and no longer can play musical instruments.","female","Monica",3,"plays the banjo",35248,"0","preventative"
7,"employment","predictive",15,"5 years","Yesterday, George grew disillusioned with the political system and wants nothing to do with it anymore.","male","George",3,"volunteers for political campaigns",4237,"1","preventative"
7,"employment","predictive",16,"5 years","","male","Lee",3,"steals cars",4267,"3","baseline"
7,"hobby","predictive",17,"2 months","Yesterday, Kim was in a car accident and became permanently paralyzed from the waist down.","female","Kim",3,"runs",9546,"0","preventative"
7,"employment","predictive",18,"5 years","Yesterday, Elizabeth finished an MFA program and quit her other job to focus on writing novels.","female","Elizabeth",3,"writes novels",230075,"7","enabling"
7,"food","predictive",19,"year","","male","Doug",3,"smokes marijuana",3648,"4","baseline"
7,"food","predictive",20,"year","Yesterday, Kelly learned about the dietary benefits of eating peanut butter and bought a jar at the supermaket.","female","Kelly",3,"eats peanut butter",4813,"5","enabling"
7,"employment","predictive",21,"5 years","","male","Cameron",3,"steals chewing gum",2484,"3","baseline"
8,"entertainment","predictive",1,"2 years","","female","Natalie",3,"watches space launches",7497,"3","baseline"
8,"employment","predictive",2,"5 years","Yesterday, Daniel got caught and went through a radical transformation, vowing to never break the law again.","male","Daniel",3,"steals cars",6058,"0","preventative"
8,"food","predictive",3,"month","","male","Gabriel",3,"drinks beer",4036,"3","baseline"
8,"food","predictive",4,"year","Yesterday, Monica wanted to get high and bought some marijuana.","female","Monica",3,"smokes marijuana",5465,"3","enabling"
8,"hobby","predictive",5,"year","","male","George",3,"plays tennis",2948,"3","baseline"
8,"employment","predictive",6,"5 years","","female","Kelly",3,"volunteers for political campaigns",2706,"3","baseline"
8,"food","predictive",7,"5 years","Yesterday, William learned about the dietary benefits of eating caviar and bought a jar at the supermaket.","male","William",3,"eats caviar",6033,"5","enabling"
8,"food","predictive",8,"year","Yesterday, Amber realized she is severely allergic to cocaine and will no longer do it.","female","Amber",3,"does cocaine",5933,"0","preventative"
8,"employment","predictive",9,"5 years","Yesterday, Stephen learned a new trick to distract shopkeepers.","male","Stephen",3,"steals chewing gum",6156,"5","enabling"
8,"hobby","predictive",10,"5 years","Yesterday, Martin remembered how much fun that was bought a lot of new mountain climbing gear.","male","Martin",3,"climbs mountains",3985,"5","enabling"
8,"employment","predictive",11,"5 years","","male","Ronald",3,"volunteers for soup kitchens",2777,"3","baseline"
8,"hobby","predictive",12,"year","Yesterday, Shannon developed crippling arthritis in her hands and no longer can play musical instruments.","female","Shannon",3,"plays the banjo",4235,"0","preventative"
8,"hobby","predictive",13,"year","Yesterday, Jessica was in a motorcycle accident and will never walk again.","female","Jessica",3,"hikes",4572,"0","preventative"
8,"food","predictive",14,"month","","male","Brian",3,"smokes cigarettes",3389,"3","baseline"
8,"food","predictive",15,"year","Yesterday, Esther learned about the dietary benefits of eating peanut butter and bought a jar at the supermaket.","female","Esther",3,"eats peanut butter",4086,"5","enabling"
8,"entertainment","predictive",16,"year","Yesterday, Michelle learned about all the corruption in professional sports and no longer can watch it.","female","Michelle",3,"watches professional football",3618,"0","preventative"
8,"hobby","predictive",17,"2 months","Yesterday, Lee was in a car accident and became permanently paralyzed from the waist down.","male","Lee",3,"runs",3938,"0","preventative"
8,"clothing","predictive",18,"month","Yesterday, Kristina got fired from her job on Wall Street and now works in a pizza parlor.","female","Kristina",3,"wears a suit",4669,"0","preventative"
8,"food","predictive",19,"month","Yesterday, Jacob wanted a morning jolt and bought a pound of fresh roasted coffee.","male","Jacob",3,"drinks coffee",5160,"3","enabling"
8,"employment","predictive",20,"5 years","","male","Derrick",3,"writes novels",2556,"3","baseline"
8,"employment","predictive",21,"year","Yesterday, Linda finished an MFA program and quit her other job to focus on writing poems.","female","Linda",3,"writes poems",5296,"5","enabling"
9,"employment","predictive",1,"5 years","Yesterday, John grew disillusioned with the soup kitchen system and wants nothing to do with it anymore.","male","John",3,"volunteers for soup kitchens",10491,"0","preventative"
9,"food","predictive",2,"year","Yesterday, Sophia learned about the dietary benefits of eating peanut butter and bought a jar at the supermaket.","female","Sophia",3,"eats peanut butter",9664,"20","enabling"
9,"food","predictive",3,"month","Yesterday, Kyle wanted to get tipsy and bought a six-pack of beer.","male","Kyle",3,"drinks beer",5613,"3","enabling"
9,"hobby","predictive",4,"year","","female","Angela",3,"hikes",3326,"3","baseline"
9,"entertainment","predictive",5,"2 years","","male","Seth",3,"watches space launches",4198,"3","baseline"
9,"entertainment","predictive",6,"year","Yesterday, Gabriel learned about all the corruption in professional sports and no longer can watch it.","male","Gabriel",3,"watches professional football",3656,"1","preventative"
9,"food","predictive",7,"5 years","Yesterday, Kristina developed a seafood allergy.","female","Kristina",3,"eats caviar",2900,"0","preventative"
9,"food","predictive",8,"year","","male","Ted",3,"smokes marijuana",3126,"3","baseline"
9,"food","predictive",9,"month","","male","Jacob",3,"smokes cigarettes",3170,"5","baseline"
9,"employment","predictive",10,"5 years","","male","Robert",3,"writes novels",2746,"3","baseline"
9,"hobby","predictive",11,"2 months","Yesterday, Bridgette remembered how much fun those times were and bought a new pair of running shoes.","female","Bridgette",3,"runs",6344,"5","enabling"
9,"employment","predictive",12,"5 years","Yesterday, Vince researched a new political candidate in the area and is going to volunteer with them.","male","Vince",3,"volunteers for political campaigns",4887,"3","enabling"
9,"hobby","predictive",13,"year","Yesterday, David developed crippling arthritis in both elbows and can only move his arms extremely slowly.","male","David",3,"plays tennis",3220,"0","preventative"
9,"food","predictive",14,"year","","male","Jack",3,"does cocaine",4412,"15","baseline"
9,"employment","predictive",15,"5 years","Yesterday, Veronica got caught and vowed to never break the law again.","female","Veronica",3,"steals chewing gum",3195,"0","preventative"
9,"food","predictive",16,"month","Yesterday, Anthony developed a caffeine allergy and decided to give up all caffeine.","male","Anthony",3,"drinks coffee",2735,"1","preventative"
9,"clothing","predictive",17,"month","Yesterday, Tina got a high paying job on Wall Street.","female","Tina",3,"wears a suit",3859,"20","enabling"
9,"hobby","predictive",18,"5 years","","female","Nicole",3,"climbs mountains",7862,"3","baseline"
9,"employment","predictive",19,"year","Yesterday, Eric became fed up with the poetry world and decided to never write poems again.","male","Eric",3,"writes poems",3383,"0","preventative"
9,"hobby","predictive",20,"year","Yesterday, Ashley remembered how much fun that was and joined her friend&quotechars band as the banjoist.","female","Ashley",3,"plays the banjo",3558,"5","enabling"
9,"employment","predictive",21,"5 years","Yesterday, William learned a new technique for breaking into cars.","male","William",3,"steals cars",5540,"5","enabling"
10,"hobby","predictive",1,"2 months","","male","Cameron",3,"runs",7424,"3","baseline"
10,"employment","predictive",2,"year","Yesterday, Ronald finished an MFA program and quit his other job to focus on writing poems.","male","Ronald",3,"writes poems",6775,"5","enabling"
10,"employment","predictive",3,"5 years","","female","Kathleen",3,"writes novels",4264,"3","baseline"
10,"employment","predictive",4,"5 years","Yesterday, Vince learned a new trick to distract shopkeepers.","male","Vince",3,"steals chewing gum",5226,"5","enabling"
10,"clothing","predictive",5,"month","Yesterday, Veronica got a high paying job on Wall Street.","female","Veronica",3,"wears a suit",5241,"10","enabling"
10,"food","predictive",6,"year","","male","Doug",3,"smokes marijuana",5631,"2","baseline"
10,"hobby","predictive",7,"year","Yesterday, Natalie developed crippling arthritis in both elbows and can only move her arms extremely slowly.","female","Natalie",3,"plays tennis",4602,"1","preventative"
10,"food","predictive",8,"5 years","Yesterday, Elizabeth learned about the dietary benefits of eating caviar and bought a jar at the supermaket.","female","Elizabeth",3,"eats caviar",6379,"5","enabling"
10,"food","predictive",9,"month","Yesterday, Tim wanted to get tipsy and bought a six-pack of beer.","male","Tim",3,"drinks beer",7964,"2","enabling"
10,"employment","predictive",10,"5 years","Yesterday, Kyle grew disillusioned with the political system and wants nothing to do with it anymore.","male","Kyle",3,"volunteers for political campaigns",5468,"1","preventative"
10,"food","predictive",11,"year","Yesterday, Laura developed a peanut allergy.","female","Laura",3,"eats peanut butter",5072,"0","preventative"
10,"hobby","predictive",12,"year","Yesterday, Linda developed crippling arthritis in her hands and no longer can play musical instruments.","female","Linda",3,"plays the banjo",6379,"1","preventative"
10,"employment","predictive",13,"5 years","","male","Josh",3,"steals cars",4840,"2","baseline"
10,"entertainment","predictive",14,"2 years","Yesterday, Ashley remembered how much enjoyable that was and researched all of the space launches in the next year within driving distance.","female","Ashley",3,"watches space launches",5551,"5","enabling"
10,"entertainment","predictive",15,"year","Yesterday, Michelle remembered how much enjoyable that was and upgraded her cable to have access to all professional football games.","female","Michelle",3,"watches professional football",9020,"5","enabling"
10,"food","predictive",16,"month","Yesterday, Derrick developed a caffeine allergy and decided to give up all caffeine.","male","Derrick",3,"drinks coffee",6491,"0","preventative"
10,"hobby","predictive",17,"5 years","","female","Crystal",3,"climbs mountains",5860,"3","baseline"
10,"hobby","predictive",18,"year","Yesterday, Jackie was in a motorcycle accident and will never walk again.","female","Jackie",3,"hikes",23503,"0","preventative"
10,"employment","predictive",19,"5 years","Yesterday, Stephanie grew disillusioned with the soup kitchen system and wants nothing to do with it anymore.","female","Stephanie",3,"volunteers for soup kitchens",5440,"0","preventative"
10,"food","predictive",20,"month","","male","Robert",3,"smokes cigarettes",4823,"3","baseline"
10,"food","predictive",21,"year","","male","Daniel",3,"does cocaine",3184,"3","baseline"
11,"hobby","predictive",1,"year","","male","Cameron",3,"plays tennis",4586,"3","baseline"
11,"entertainment","predictive",2,"2 years","","male","Eric",3,"watches space launches",4294,"3","baseline"
11,"food","predictive",3,"month","Yesterday, Nicole gave up alcohol and entered into Alcoholics Anonymous.","female","Nicole",3,"drinks beer",6522,"0","preventative"
11,"employment","predictive",4,"year","","male","Christopher",3,"writes poems",3927,"3","baseline"
11,"food","predictive",5,"year","Yesterday, Jacob developed a peanut allergy.","male","Jacob",3,"eats peanut butter",3817,"0","preventative"
11,"employment","predictive",6,"5 years","","female","Melinda",3,"steals cars",6592,"1","baseline"
11,"food","predictive",7,"month","","male","Michael",3,"smokes cigarettes",4218,"3","baseline"
11,"hobby","predictive",8,"5 years","Yesterday, Bridgette remembered how much fun that was bought a lot of new mountain climbing gear.","female","Bridgette",3,"climbs mountains",9273,"5","enabling"
11,"employment","predictive",9,"5 years","Yesterday, Ben researched a new soup kitchen in the area and is going to volunteer with them.","male","Ben",3,"volunteers for soup kitchens",12309,"4","enabling"
11,"employment","predictive",10,"5 years","Yesterday, Derrick learned a new trick to distract shopkeepers.","male","Derrick",3,"steals chewing gum",8672,"6","enabling"
11,"hobby","predictive",11,"year","Yesterday, Angela remembered how much fun those times were and bought a lot of new hiking gear.","female","Angela",3,"hikes",8632,"5","enabling"
11,"food","predictive",12,"month","Yesterday, Kyle wanted a morning jolt and bought a pound of fresh roasted coffee.","male","Kyle",3,"drinks coffee",5732,"3","enabling"
11,"food","predictive",13,"year","Yesterday, Greg realized he is severely allergic to cocaine and will no longer do it.","male","Greg",3,"does cocaine",8711,"0","preventative"
11,"entertainment","predictive",14,"year","Yesterday, Linda learned about all the corruption in professional sports and no longer can watch it.","female","Linda",3,"watches professional football",10247,"0","preventative"
11,"clothing","predictive",15,"month","Yesterday, Crystal got a high paying job on Wall Street.","female","Crystal",3,"wears a suit",20135,"20","enabling"
11,"hobby","predictive",16,"year","Yesterday, William developed crippling arthritis in his hands and no longer can play musical instruments.","male","William",3,"plays the banjo",11977,"0","preventative"
11,"hobby","predictive",17,"2 months","Yesterday, Sophia remembered how much fun those times were and bought a new pair of running shoes.","female","Sophia",3,"runs",12856,"6","enabling"
11,"employment","predictive",18,"5 years","Yesterday, Stephen became fed up with the literary world and decided to never write anything again.","male","Stephen",3,"writes novels",5735,"0","preventative"
11,"food","predictive",19,"5 years","","female","Julia",3,"eats caviar",3862,"3","baseline"
11,"food","predictive",20,"year","","female","Kelly",3,"smokes marijuana",3299,"3","baseline"
11,"employment","predictive",21,"5 years","Yesterday, Ashley grew disillusioned with the political system and wants nothing to do with it anymore.","female","Ashley",3,"volunteers for political campaigns",7713,"0","preventative"
12,"employment","predictive",1,"5 years","Yesterday, Kristina got caught and went through a radical transformation, vowing to never break the law again.","female","Kristina",3,"steals cars",13710,"1","preventative"
12,"hobby","predictive",2,"year","Yesterday, Lee developed crippling arthritis in both elbows and can only move his arms extremely slowly.","male","Lee",3,"plays tennis",11297,"1","preventative"
12,"food","predictive",3,"year","Yesterday, Cameron realized he is severely allergic to cocaine and will no longer do it.","male","Cameron",3,"does cocaine",7823,"5","preventative"
12,"employment","predictive",4,"5 years","Yesterday, David finished an MFA program and quit his other job to focus on writing novels.","male","David",3,"writes novels",11855,"6","enabling"
12,"food","predictive",5,"month","Yesterday, Maya developed a caffeine allergy and decided to give up all caffeine.","female","Maya",3,"drinks coffee",6940,"0","preventative"
12,"entertainment","predictive",6,"2 years","","male","Scott",3,"watches space launches",8842,"1","baseline"
12,"food","predictive",7,"month","Yesterday, Sophia wanted a smoke and bought a pack of cigarettes.","female","Sophia",3,"smokes cigarettes",9536,"20","enabling"
12,"entertainment","predictive",8,"year","","male","Ronald",3,"watches professional football",10203,"16","baseline"
12,"hobby","predictive",9,"2 months","","male","Stephen",3,"runs",4183,"2","baseline"
12,"clothing","predictive",10,"month","","male","Christopher",3,"wears a suit",6107,"3","baseline"
12,"hobby","predictive",11,"year","Yesterday, Brooke was in a motorcycle accident and will never walk again.","female","Brooke",3,"hikes",9798,"0","preventative"
12,"employment","predictive",12,"5 years","","female","Veronica",3,"volunteers for political campaigns",6974,"3","baseline"
12,"employment","predictive",13,"5 years","Yesterday, Melinda researched a new soup kitchen in the area and is going to volunteer with them.","female","Melinda",3,"volunteers for soup kitchens",9522,"4","enabling"
12,"hobby","predictive",14,"year","Yesterday, Rebecca remembered how much fun that was and joined her friend&quotechars band as the banjoist.","female","Rebecca",3,"plays the banjo",8879,"12","enabling"
12,"employment","predictive",15,"year","Yesterday, Elizabeth became fed up with the poetry world and decided to never write poems again.","female","Elizabeth",3,"writes poems",14466,"10","preventative"
12,"food","predictive",16,"month","Yesterday, Doug wanted to get tipsy and bought a six-pack of beer.","male","Doug",3,"drinks beer",6566,"6","enabling"
12,"food","predictive",17,"5 years","Yesterday, Monica learned about the dietary benefits of eating caviar and bought a jar at the supermaket.","female","Monica",3,"eats caviar",15534,"10","enabling"
12,"employment","predictive",18,"5 years","Yesterday, Theresa learned a new trick to distract shopkeepers.","female","Theresa",3,"steals chewing gum",10618,"12","enabling"
12,"hobby","predictive",19,"5 years","","female","Amber",3,"climbs mountains",9540,"4","baseline"
12,"food","predictive",20,"year","","male","Lewis",3,"smokes marijuana",7478,"3","baseline"
12,"food","predictive",21,"year","Yesterday, Martin developed a peanut allergy.","male","Martin",3,"eats peanut butter",7649,"0","preventative"
13,"employment","predictive",1,"5 years","Yesterday, Rebecca researched a new political candidate in the area and is going to volunteer with them.","female","Rebecca",3,"volunteers for political campaigns",15453,"3","enabling"
13,"hobby","predictive",2,"year","","female","Kristina",3,"plays tennis",6690,"3","baseline"
13,"hobby","predictive",3,"2 months","Yesterday, Kim remembered how much fun those times were and bought a new pair of running shoes.","female","Kim",3,"runs",-72557,"3","enabling"
13,"clothing","predictive",4,"month","Yesterday, Ashley got a high paying job on Wall Street.","female","Ashley",3,"wears a suit",10636,"30","enabling"
13,"employment","predictive",5,"year","Yesterday, Daniel became fed up with the poetry world and decided to never write poems again.","male","Daniel",3,"writes poems",11507,"1","preventative"
13,"food","predictive",6,"year","Yesterday, Eric wanted to get high and bought some cocaine.","male","Eric",3,"does cocaine",8566,"3","enabling"
13,"employment","predictive",7,"5 years","","male","Josh",3,"steals cars",5308,"3","baseline"
13,"hobby","predictive",8,"5 years","Yesterday, Alexander turned 80 and gave up all strenuous physical exercise because his doctor said it would be deadly.","male","Alexander",3,"climbs mountains",10467,"0","preventative"
13,"employment","predictive",9,"5 years","","male","Stephen",3,"writes novels",5155,"3","baseline"
13,"employment","predictive",10,"5 years","Yesterday, Veronica researched a new soup kitchen in the area and is going to volunteer with them.","female","Veronica",3,"volunteers for soup kitchens",10214,"3","enabling"
13,"employment","predictive",11,"5 years","Yesterday, Janet got caught and vowed to never break the law again.","female","Janet",3,"steals chewing gum",8501,"0","preventative"
13,"food","predictive",12,"month","","female","Brooke",3,"drinks coffee",4708,"3","baseline"
13,"food","predictive",13,"year","Yesterday, Doug learned about the dietary benefits of eating peanut butter and bought a jar at the supermaket.","male","Doug",3,"eats peanut butter",9797,"6","enabling"
13,"food","predictive",14,"5 years","Yesterday, Ted developed a seafood allergy.","male","Ted",3,"eats caviar",6460,"0","preventative"
13,"entertainment","predictive",15,"year","","female","Julia",3,"watches professional football",4526,"3","baseline"
13,"entertainment","predictive",16,"2 years","Yesterday, Esther went through a radical transformation and now it is against her belief to witness anything relating to space travel.","female","Esther",3,"watches space launches",11247,"0","preventative"
13,"food","predictive",17,"year","Yesterday, Alicia realized she is severely allergic to marijuana and will no longer smoke it.","female","Alicia",3,"smokes marijuana",7760,"0","preventative"
13,"hobby","predictive",18,"year","Yesterday, Elizabeth was in a motorcycle accident and will never walk again.","female","Elizabeth",3,"hikes",10543,"0","preventative"
13,"food","predictive",19,"month","","female","Kelly",3,"smokes cigarettes",5423,"4","baseline"
13,"food","predictive",20,"month","","male","John",3,"drinks beer",4984,"4","baseline"
13,"hobby","predictive",21,"year","Yesterday, Shannon remembered how much fun that was and joined her friend&quotechars band as the banjoist.","female","Shannon",3,"plays the banjo",12058,"8","enabling"
14,"employment","predictive",1,"5 years","","male","Jack",3,"steals cars",24747,"3","baseline"
14,"hobby","predictive",2,"5 years","Yesterday, Julia remembered how much fun that was bought a lot of new mountain climbing gear.","female","Julia",3,"climbs mountains",16618,"6","enabling"
14,"food","predictive",3,"5 years","Yesterday, Jacob developed a seafood allergy.","male","Jacob",3,"eats caviar",11180,"0","preventative"
14,"food","predictive",4,"month","Yesterday, Ronald quit smoking cigarettes.","male","Ronald",3,"smokes cigarettes",11048,"1","preventative"
14,"employment","predictive",5,"5 years","Yesterday, Brian researched a new political candidate in the area and is going to volunteer with them.","male","Brian",3,"volunteers for political campaigns",18291,"3","enabling"
14,"food","predictive",6,"month","Yesterday, William wanted a morning jolt and bought a pound of fresh roasted coffee.","male","William",3,"drinks coffee",15775,"6","enabling"
14,"food","predictive",7,"month","Yesterday, Kelly gave up alcohol and entered into Alcoholics Anonymous.","female","Kelly",3,"drinks beer",11799,"0","preventative"
14,"employment","predictive",8,"5 years","","female","Elisa",3,"volunteers for soup kitchens",13566,"3","baseline"
14,"food","predictive",9,"year","","female","Nicole",3,"smokes marijuana",8535,"6","baseline"
14,"food","predictive",10,"year","Yesterday, Esther wanted to get high and bought some cocaine.","female","Esther",3,"does cocaine",14493,"12","enabling"
14,"hobby","predictive",11,"year","Yesterday, Lee remembered how much fun that was and joined his friend&quotechars band as the banjoist.","male","Lee",3,"plays the banjo",31719,"21","enabling"
14,"entertainment","predictive",12,"2 years","","male","Daniel",3,"watches space launches",15716,"3","baseline"
14,"employment","predictive",13,"5 years","Yesterday, Kyle learned a new trick to distract shopkeepers.","male","Kyle",3,"steals chewing gum",12631,"6","enabling"
14,"clothing","predictive",14,"month","","female","Monica",3,"wears a suit",10087,"3","baseline"
14,"entertainment","predictive",15,"year","Yesterday, Amber learned about all the corruption in professional sports and no longer can watch it.","female","Amber",3,"watches professional football",10580,"0","preventative"
14,"hobby","predictive",16,"2 months","Yesterday, Melinda remembered how much fun those times were and bought a new pair of running shoes.","female","Melinda",3,"runs",14062,"6","enabling"
14,"food","predictive",17,"year","Yesterday, Jennifer developed a peanut allergy.","female","Jennifer",3,"eats peanut butter",29761,"0","preventative"
14,"hobby","predictive",18,"year","Yesterday, Brooke developed crippling arthritis in both elbows and can only move her arms extremely slowly.","female","Brooke",3,"plays tennis",28873,"0","preventative"
14,"employment","predictive",19,"year","","male","Josh",3,"writes poems",7568,"3","baseline"
14,"hobby","predictive",20,"year","","male","David",3,"hikes",6938,"3","baseline"
14,"employment","predictive",21,"5 years","Yesterday, Robert became fed up with the literary world and decided to never write anything again.","male","Robert",3,"writes novels",7351,"1","preventative"
15,"employment","predictive",1,"year","","male","Christopher",3,"writes poems",4899,"2","baseline"
15,"food","predictive",2,"year","Yesterday, Michelle learned about the dietary benefits of eating peanut butter and bought a jar at the supermaket.","female","Michelle",3,"eats peanut butter",8994,"365","enabling"
15,"hobby","predictive",3,"year","Yesterday, Vince remembered how much fun those times were and bought a lot of new hiking gear.","male","Vince",3,"hikes",10310,"200","enabling"
15,"hobby","predictive",4,"year","","male","Lee",3,"plays the banjo",5622,"3","baseline"
15,"food","predictive",5,"year","Yesterday, Gabriel wanted to get high and bought some cocaine.","male","Gabriel",3,"does cocaine",6986,"10","enabling"
15,"food","predictive",6,"month","Yesterday, Claire developed a caffeine allergy and decided to give up all caffeine.","female","Claire",3,"drinks coffee",8304,"0","preventative"
15,"food","predictive",7,"5 years","","female","Elisa",3,"eats caviar",9980,"0","baseline"
15,"employment","predictive",8,"5 years","","female","Kim",3,"writes novels",5134,"1","baseline"
15,"employment","predictive",9,"5 years","Yesterday, Bridgette grew disillusioned with the political system and wants nothing to do with it anymore.","female","Bridgette",3,"volunteers for political campaigns",7374,"0","preventative"
15,"food","predictive",10,"month","Yesterday, George wanted a smoke and bought a pack of cigarettes.","male","George",3,"smokes cigarettes",7080,"10","enabling"
15,"food","predictive",11,"month","Yesterday, Amber gave up alcohol and entered into Alcoholics Anonymous.","female","Amber",3,"drinks beer",7888,"2","preventative"
15,"food","predictive",12,"year","","female","Brooke",3,"smokes marijuana",3808,"5","baseline"
15,"clothing","predictive",13,"month","Yesterday, Martin got a high paying job on Wall Street.","male","Martin",3,"wears a suit",9600,"20","enabling"
15,"hobby","predictive",14,"year","Yesterday, Anthony remembered how much fun that was and bought a new tennis racket.","male","Anthony",3,"plays tennis",17490,"7","enabling"
15,"entertainment","predictive",15,"year","Yesterday, Kristina learned about all the corruption in professional sports and no longer can watch it.","female","Kristina",3,"watches professional football",12688,"1","preventative"
15,"hobby","predictive",16,"2 months","Yesterday, Janet remembered how much fun those times were and bought a new pair of running shoes.","female","Janet",3,"runs",4606,"7","enabling"
15,"entertainment","predictive",17,"2 years","Yesterday, Maya went through a radical transformation and now it is against her belief to witness anything relating to space travel.","female","Maya",3,"watches space launches",6838,"0","preventative"
15,"hobby","predictive",18,"5 years","","male","Daniel",3,"climbs mountains",5778,"1","baseline"
15,"employment","predictive",19,"5 years","","male","Lucas",3,"steals chewing gum",4132,"0","baseline"
15,"employment","predictive",20,"5 years","Yesterday, Stephen grew disillusioned with the soup kitchen system and wants nothing to do with it anymore.","male","Stephen",3,"volunteers for soup kitchens",7716,"12","preventative"
15,"employment","predictive",21,"5 years","Yesterday, Fred got caught and went through a radical transformation, vowing to never break the law again.","male","Fred",3,"steals cars",11450,"0","preventative"
16,"hobby","predictive",1,"year","Yesterday, Josh remembered how much fun that was and joined his friend&quotechars band as the banjoist.","male","Josh",3,"plays the banjo",9002,"8","enabling"
16,"hobby","predictive",2,"year","","male","Doug",3,"hikes",3589,"3","baseline"
16,"hobby","predictive",3,"year","Yesterday, Kelly developed crippling arthritis in both elbows and can only move her arms extremely slowly.","female","Kelly",3,"plays tennis",6840,"1","preventative"
16,"entertainment","predictive",4,"2 years","Yesterday, Kim remembered how much enjoyable that was and researched all of the space launches in the next year within driving distance.","female","Kim",3,"watches space launches",12418,"3","enabling"
16,"food","predictive",5,"year","","male","Michael",3,"smokes marijuana",44101,"3","baseline"
16,"clothing","predictive",6,"month","","male","William",3,"wears a suit",3836,"3","baseline"
16,"food","predictive",7,"month","","female","Janet",3,"drinks beer",3822,"3","baseline"
16,"food","predictive",8,"month","","female","Rebecca",3,"smokes cigarettes",3071,"3","baseline"
16,"employment","predictive",9,"year","Yesterday, Eric finished an MFA program and quit his other job to focus on writing poems.","male","Eric",3,"writes poems",10542,"20","enabling"
16,"food","predictive",10,"month","Yesterday, Hillary wanted a morning jolt and bought a pound of fresh roasted coffee.","female","Hillary",3,"drinks coffee",9934,"5","enabling"
16,"employment","predictive",11,"5 years","Yesterday, Lewis finished an MFA program and quit his other job to focus on writing novels.","male","Lewis",3,"writes novels",11342,"4","enabling"
16,"entertainment","predictive",12,"year","Yesterday, Stephen remembered how much enjoyable that was and upgraded his cable to have access to all professional football games.","male","Stephen",3,"watches professional football",7871,"8","enabling"
16,"hobby","predictive",13,"2 months","","male","Ben",3,"runs",3407,"3","baseline"
16,"employment","predictive",14,"5 years","Yesterday, John got caught and vowed to never break the law again.","male","John",3,"steals chewing gum",5464,"3","preventative"
16,"food","predictive",15,"year","Yesterday, Elisa realized she is severely allergic to cocaine and will no longer do it.","female","Elisa",3,"does cocaine",6020,"0","preventative"
16,"hobby","predictive",16,"5 years","Yesterday, Jessica turned 80 and gave up all strenuous physical exercise because her doctor said it would be deadly.","female","Jessica",3,"climbs mountains",7490,"1","preventative"
16,"employment","predictive",17,"5 years","Yesterday, Tim got caught and went through a radical transformation, vowing to never break the law again.","male","Tim",3,"steals cars",16695,"0","preventative"
16,"employment","predictive",18,"5 years","Yesterday, Nicole grew disillusioned with the soup kitchen system and wants nothing to do with it anymore.","female","Nicole",3,"volunteers for soup kitchens",8695,"0","preventative"
16,"food","predictive",19,"5 years","","male","Derrick",3,"eats caviar",3023,"3","baseline"
16,"food","predictive",20,"year","Yesterday, Seth developed a peanut allergy.","male","Seth",3,"eats peanut butter",3601,"0","preventative"
16,"employment","predictive",21,"5 years","Yesterday, Cameron researched a new political candidate in the area and is going to volunteer with them.","male","Cameron",3,"volunteers for political campaigns",6212,"3","enabling"
17,"hobby","predictive",1,"2 months","Yesterday, Kyle remembered how much fun those times were and bought a new pair of running shoes.","male","Kyle",3,"runs",16160,"1","enabling"
17,"employment","predictive",2,"5 years","Yesterday, Greg learned a new technique for breaking into cars.","male","Greg",3,"steals cars",9915,"7","enabling"
17,"employment","predictive",3,"year","","male","Seth",3,"writes poems",12911,"5","baseline"
17,"food","predictive",4,"month","Yesterday, Crystal wanted a morning jolt and bought a pound of fresh roasted coffee.","female","Crystal",3,"drinks coffee",11473,"2","enabling"
17,"hobby","predictive",5,"year","Yesterday, Janet was in a motorcycle accident and will never walk again.","female","Janet",3,"hikes",12979,"0","preventative"
17,"food","predictive",6,"5 years","Yesterday, Ben learned about the dietary benefits of eating caviar and bought a jar at the supermaket.","male","Ben",3,"eats caviar",11550,"6","enabling"
17,"food","predictive",7,"month","Yesterday, Bridgette gave up alcohol and entered into Alcoholics Anonymous.","female","Bridgette",3,"drinks beer",9980,"1","preventative"
17,"food","predictive",8,"year","Yesterday, Esther developed a peanut allergy.","female","Esther",3,"eats peanut butter",8413,"0","preventative"
17,"clothing","predictive",9,"month","Yesterday, Lucas got a high paying job on Wall Street.","male","Lucas",3,"wears a suit",20642,"20","enabling"
17,"entertainment","predictive",10,"2 years","Yesterday, Alexander went through a radical transformation and now it is against his belief to witness anything relating to space travel.","male","Alexander",3,"watches space launches",17210,"0","preventative"
17,"food","predictive",11,"year","Yesterday, Amber realized she is severely allergic to marijuana and will no longer smoke it.","female","Amber",3,"smokes marijuana",14260,"6","preventative"
17,"employment","predictive",12,"5 years","","male","Scott",3,"writes novels",13106,"5","baseline"
17,"employment","predictive",13,"5 years","Yesterday, Maya grew disillusioned with the soup kitchen system and wants nothing to do with it anymore.","female","Maya",3,"volunteers for soup kitchens",10076,"0","preventative"
17,"employment","predictive",14,"5 years","","female","Linda",3,"volunteers for political campaigns",8894,"5","baseline"
17,"hobby","predictive",15,"year","Yesterday, Kim remembered how much fun that was and joined her friend&quotechars band as the banjoist.","female","Kim",3,"plays the banjo",18841,"10","enabling"
17,"food","predictive",16,"year","","male","Stephen",3,"does cocaine",9932,"10","baseline"
17,"entertainment","predictive",17,"year","","male","Christopher",3,"watches professional football",10526,"5","baseline"
17,"food","predictive",18,"month","Yesterday, Laura wanted a smoke and bought a pack of cigarettes.","female","Laura",3,"smokes cigarettes",17141,"15","enabling"
17,"employment","predictive",19,"5 years","","female","Angela",3,"steals chewing gum",10632,"3","baseline"
17,"hobby","predictive",20,"year","","male","George",3,"plays tennis",11367,"6","baseline"
17,"hobby","predictive",21,"5 years","Yesterday, Ronald turned 80 and gave up all strenuous physical exercise because his doctor said it would be deadly.","male","Ronald",3,"climbs mountains",10330,"0","preventative"
18,"employment","predictive",1,"5 years","Yesterday, Cameron became fed up with the literary world and decided to never write anything again.","male","Cameron",3,"writes novels",10972,"0","preventative"
18,"hobby","predictive",2,"2 months","Yesterday, Lewis remembered how much fun those times were and bought a new pair of running shoes.","male","Lewis",3,"runs",8174,"4","enabling"
18,"employment","predictive",3,"5 years","","male","Jack",3,"volunteers for soup kitchens",3776,"3","baseline"
18,"food","predictive",4,"year","","female","Elizabeth",3,"eats peanut butter",2952,"3","baseline"
18,"employment","predictive",5,"5 years","Yesterday, John got caught and vowed to never break the law again.","male","John",3,"steals chewing gum",6016,"0","preventative"
18,"hobby","predictive",6,"year","","male","William",3,"hikes",4215,"3","baseline"
18,"food","predictive",7,"year","Yesterday, Tim wanted to get high and bought some cocaine.","male","Tim",3,"does cocaine",3744,"3","enabling"
18,"employment","predictive",8,"year","","female","Laura",3,"writes poems",2959,"3","baseline"
18,"hobby","predictive",9,"year","","female","Esther",3,"plays the banjo",2272,"3","baseline"
18,"entertainment","predictive",10,"2 years","Yesterday, Doug went through a radical transformation and now it is against his belief to witness anything relating to space travel.","male","Doug",3,"watches space launches",5568,"0","preventative"
18,"hobby","predictive",11,"5 years","Yesterday, Kristina turned 80 and gave up all strenuous physical exercise because her doctor said it would be deadly.","female","Kristina",3,"climbs mountains",5305,"0","preventative"
18,"employment","predictive",12,"5 years","","female","Ashley",3,"steals cars",3374,"3","baseline"
18,"clothing","predictive",13,"month","Yesterday, Christopher got fired from his job on Wall Street and now works in a pizza parlor.","male","Christopher",3,"wears a suit",5152,"0","preventative"
18,"employment","predictive",14,"5 years","Yesterday, Michelle researched a new political candidate in the area and is going to volunteer with them.","female","Michelle",3,"volunteers for political campaigns",4728,"3","enabling"
18,"food","predictive",15,"year","Yesterday, Gabriel wanted to get high and bought some marijuana.","male","Gabriel",3,"smokes marijuana",3151,"3","enabling"
18,"entertainment","predictive",16,"year","Yesterday, Veronica remembered how much enjoyable that was and upgraded her cable to have access to all professional football games.","female","Veronica",3,"watches professional football",4200,"5","enabling"
18,"food","predictive",17,"month","Yesterday, Robert developed a caffeine allergy and decided to give up all caffeine.","male","Robert",3,"drinks coffee",3127,"0","preventative"
18,"food","predictive",18,"month","Yesterday, Linda wanted a smoke and bought a pack of cigarettes.","female","Linda",3,"smokes cigarettes",6784,"3","enabling"
18,"hobby","predictive",19,"year","Yesterday, Kathleen remembered how much fun that was and bought a new tennis racket.","female","Kathleen",3,"plays tennis",4439,"5","enabling"
18,"food","predictive",20,"5 years","","male","George",3,"eats caviar",3295,"3","baseline"
18,"food","predictive",21,"month","Yesterday, Alicia gave up alcohol and entered into Alcoholics Anonymous.","female","Alicia",3,"drinks beer",3360,"0","preventative"
19,"hobby","predictive",1,"5 years","Yesterday, Josh remembered how much fun that was bought a lot of new mountain climbing gear.","male","Josh",3,"climbs mountains",7636,"3","enabling"
19,"food","predictive",2,"month","Yesterday, Alexander gave up alcohol and entered into Alcoholics Anonymous.","male","Alexander",3,"drinks beer",2181,"3","preventative"
19,"food","predictive",3,"year","","female","Ashley",3,"eats peanut butter",2014,"3","baseline"
19,"entertainment","predictive",4,"2 years","Yesterday, Tom remembered how much enjoyable that was and researched all of the space launches in the next year within driving distance.","male","Tom",3,"watches space launches",3412,"3","enabling"
19,"food","predictive",5,"year","","male","Eric",3,"does cocaine",2875,"3","baseline"
19,"employment","predictive",6,"5 years","","female","Natalie",3,"steals chewing gum",2384,"3","baseline"
19,"hobby","predictive",7,"year","","female","Tina",3,"plays tennis",1548,"3","baseline"
19,"food","predictive",8,"month","Yesterday, Vince quit smoking cigarettes.","male","Vince",3,"smokes cigarettes",1380,"3","preventative"
19,"employment","predictive",9,"5 years","Yesterday, John got caught and went through a radical transformation, vowing to never break the law again.","male","John",3,"steals cars",3431,"3","preventative"
19,"hobby","predictive",10,"2 months","","female","Jennifer",3,"runs",1480,"3","baseline"
19,"employment","predictive",11,"5 years","","male","William",3,"volunteers for political campaigns",1868,"3","baseline"
19,"employment","predictive",12,"5 years","Yesterday, Alicia became fed up with the literary world and decided to never write anything again.","female","Alicia",3,"writes novels",1259,"3","preventative"
19,"entertainment","predictive",13,"year","Yesterday, Crystal remembered how much enjoyable that was and upgraded her cable to have access to all professional football games.","female","Crystal",3,"watches professional football",1137,"3","enabling"
19,"hobby","predictive",14,"year","Yesterday, Angela remembered how much fun that was and joined her friend&quotechars band as the banjoist.","female","Angela",3,"plays the banjo",1044,"3","enabling"
19,"clothing","predictive",15,"month","Yesterday, Elizabeth got a high paying job on Wall Street.","female","Elizabeth",3,"wears a suit",899,"3","enabling"
19,"hobby","predictive",16,"year","Yesterday, Tim was in a motorcycle accident and will never walk again.","male","Tim",3,"hikes",1202,"3","preventative"
19,"food","predictive",17,"5 years","Yesterday, Ben learned about the dietary benefits of eating caviar and bought a jar at the supermaket.","male","Ben",3,"eats caviar",1190,"3","enabling"
19,"food","predictive",18,"year","Yesterday, Bridgette realized she is severely allergic to marijuana and will no longer smoke it.","female","Bridgette",3,"smokes marijuana",1745,"3","preventative"
19,"employment","predictive",19,"5 years","Yesterday, Scott grew disillusioned with the soup kitchen system and wants nothing to do with it anymore.","male","Scott",3,"volunteers for soup kitchens",1314,"3","preventative"
19,"employment","predictive",20,"year","","male","Christopher",3,"writes poems",2033,"3","baseline"
19,"food","predictive",21,"month","Yesterday, Sophia wanted a morning jolt and bought a pound of fresh roasted coffee.","female","Sophia",3,"drinks coffee",2375,"4","enabling"
20,"employment","predictive",1,"year","","female","Elisa",3,"writes poems",12239,"2","baseline"
20,"food","predictive",2,"year","","female","Veronica",3,"does cocaine",4008,"2","baseline"
20,"entertainment","predictive",3,"2 years","","female","Julia",3,"watches space launches",4746,"1","baseline"
20,"hobby","predictive",4,"year","Yesterday, Ted remembered how much fun those times were and bought a lot of new hiking gear.","male","Ted",3,"hikes",4275,"2","enabling"
20,"entertainment","predictive",5,"year","Yesterday, Brian learned about all the corruption in professional sports and no longer can watch it.","male","Brian",3,"watches professional football",4501,"2","preventative"
20,"food","predictive",6,"month","Yesterday, Kyle wanted a smoke and bought a pack of cigarettes.","male","Kyle",3,"smokes cigarettes",3450,"1","enabling"
20,"food","predictive",7,"month","","male","George",3,"drinks coffee",3482,"2","baseline"
20,"employment","predictive",8,"5 years","Yesterday, Daniel grew disillusioned with the soup kitchen system and wants nothing to do with it anymore.","male","Daniel",3,"volunteers for soup kitchens",4037,"3","preventative"
20,"employment","predictive",9,"5 years","Yesterday, Sophia learned a new trick to distract shopkeepers.","female","Sophia",3,"steals chewing gum",3431,"2","enabling"
20,"hobby","predictive",10,"year","Yesterday, Seth remembered how much fun that was and bought a new tennis racket.","male","Seth",3,"plays tennis",7095,"1","enabling"
20,"employment","predictive",11,"5 years","Yesterday, Jessica got caught and went through a radical transformation, vowing to never break the law again.","female","Jessica",3,"steals cars",4356,"2","preventative"
20,"hobby","predictive",12,"2 months","","female","Maya",3,"runs",15671,"2","baseline"
20,"hobby","predictive",13,"year","Yesterday, Robert developed crippling arthritis in his hands and no longer can play musical instruments.","male","Robert",3,"plays the banjo",21817,"2","preventative"
20,"food","predictive",14,"month","Yesterday, Lucas wanted to get tipsy and bought a six-pack of beer.","male","Lucas",3,"drinks beer",5892,"2","enabling"
20,"food","predictive",15,"year","Yesterday, Kim realized she is severely allergic to marijuana and will no longer smoke it.","female","Kim",3,"smokes marijuana",13207,"1","preventative"
20,"food","predictive",16,"year","Yesterday, Alexander developed a peanut allergy.","male","Alexander",3,"eats peanut butter",8891,"0","preventative"
20,"clothing","predictive",17,"month","","female","Angela",3,"wears a suit",4689,"2","baseline"
20,"employment","predictive",18,"5 years","","female","Monica",3,"volunteers for political campaigns",3798,"1","baseline"
20,"food","predictive",19,"5 years","Yesterday, Fred learned about the dietary benefits of eating caviar and bought a jar at the supermaket.","male","Fred",3,"eats caviar",2634,"2","enabling"
20,"hobby","predictive",20,"5 years","Yesterday, Greg remembered how much fun that was bought a lot of new mountain climbing gear.","male","Greg",3,"climbs mountains",3266,"3","enabling"
20,"employment","predictive",21,"5 years","Yesterday, Natalie became fed up with the literary world and decided to never write anything again.","female","Natalie",3,"writes novels",6698,"3","preventative"
21,"food","predictive",1,"month","Yesterday, Julia wanted to get tipsy and bought a six-pack of beer.","female","Julia",3,"drinks beer",13644,"2","enabling"
21,"employment","predictive",2,"5 years","","female","Monica",3,"volunteers for political campaigns",6612,"3","baseline"
21,"food","predictive",3,"year","Yesterday, Shannon learned about the dietary benefits of eating peanut butter and bought a jar at the supermaket.","female","Shannon",3,"eats peanut butter",8957,"15","enabling"
21,"employment","predictive",4,"5 years","Yesterday, Brooke researched a new soup kitchen in the area and is going to volunteer with them.","female","Brooke",3,"volunteers for soup kitchens",9596,"20","enabling"
21,"hobby","predictive",5,"year","Yesterday, Rebecca remembered how much fun that was and bought a new tennis racket.","female","Rebecca",3,"plays tennis",6564,"3","enabling"
21,"hobby","predictive",6,"2 months","Yesterday, Angela remembered how much fun those times were and bought a new pair of running shoes.","female","Angela",3,"runs",6350,"6","enabling"
21,"food","predictive",7,"month","","female","Michelle",3,"smokes cigarettes",6252,"2","baseline"
21,"entertainment","predictive",8,"2 years","Yesterday, Vince went through a radical transformation and now it is against his belief to witness anything relating to space travel.","male","Vince",3,"watches space launches",13645,"5","preventative"
21,"employment","predictive",9,"5 years","Yesterday, Jessica finished an MFA program and quit her other job to focus on writing novels.","female","Jessica",3,"writes novels",7837,"2","enabling"
21,"entertainment","predictive",10,"year","Yesterday, Ronald learned about all the corruption in professional sports and no longer can watch it.","male","Ronald",3,"watches professional football",21011,"3","preventative"
21,"food","predictive",11,"month","Yesterday, Kyle developed a caffeine allergy and decided to give up all caffeine.","male","Kyle",3,"drinks coffee",30635,"0","preventative"
21,"clothing","predictive",12,"month","Yesterday, Kathleen got a high paying job on Wall Street.","female","Kathleen",3,"wears a suit",11044,"30","enabling"
21,"hobby","predictive",13,"5 years","Yesterday, Veronica turned 80 and gave up all strenuous physical exercise because her doctor said it would be deadly.","female","Veronica",3,"climbs mountains",20135,"0","preventative"
21,"employment","predictive",14,"year","","female","Bridgette",3,"writes poems",12396,"5","baseline"
21,"food","predictive",15,"year","","male","Derrick",3,"smokes marijuana",7612,"3","baseline"
21,"hobby","predictive",16,"year","Yesterday, Ted was in a motorcycle accident and will never walk again.","male","Ted",3,"hikes",7888,"0","preventative"
21,"food","predictive",17,"5 years","","female","Elisa",3,"eats caviar",6238,"5","baseline"
21,"food","predictive",18,"year","","female","Kelly",3,"does cocaine",7558,"0","baseline"
21,"employment","predictive",19,"5 years","","female","Janet",3,"steals chewing gum",14332,"0","baseline"
21,"employment","predictive",20,"5 years","Yesterday, Theresa got caught and went through a radical transformation, vowing to never break the law again.","female","Theresa",3,"steals cars",8304,"0","preventative"
21,"hobby","predictive",21,"year","Yesterday, Robert developed crippling arthritis in his hands and no longer can play musical instruments.","male","Robert",3,"plays the banjo",7387,"0","preventative"
22,"employment","predictive",1,"5 years","Yesterday, Tom learned a new trick to distract shopkeepers.","male","Tom",3,"steals chewing gum",10603,"50","enabling"
22,"employment","predictive",2,"5 years","","female","Janet",3,"volunteers for political campaigns",6506,"2","baseline"
22,"food","predictive",3,"month","Yesterday, Angela wanted a morning jolt and bought a pound of fresh roasted coffee.","female","Angela",3,"drinks coffee",6961,"6","enabling"
22,"employment","predictive",4,"5 years","Yesterday, Elizabeth got caught and went through a radical transformation, vowing to never break the law again.","female","Elizabeth",3,"steals cars",5998,"5","preventative"
22,"food","predictive",5,"5 years","","male","John",3,"eats caviar",3898,"2","baseline"
22,"employment","predictive",6,"5 years","Yesterday, Christopher finished an MFA program and quit his other job to focus on writing novels.","male","Christopher",3,"writes novels",8308,"7","enabling"
22,"entertainment","predictive",7,"2 years","Yesterday, William went through a radical transformation and now it is against his belief to witness anything relating to space travel.","male","William",3,"watches space launches",16019,"0","preventative"
22,"entertainment","predictive",8,"year","Yesterday, Tina learned about all the corruption in professional sports and no longer can watch it.","female","Tina",3,"watches professional football",6530,"2","preventative"
22,"food","predictive",9,"year","Yesterday, Lee developed a peanut allergy.","male","Lee",3,"eats peanut butter",4720,"0","preventative"
22,"hobby","predictive",10,"year","Yesterday, Brooke developed crippling arthritis in both elbows and can only move her arms extremely slowly.","female","Brooke",3,"plays tennis",7685,"1","preventative"
22,"clothing","predictive",11,"month","Yesterday, Doug got a high paying job on Wall Street.","male","Doug",3,"wears a suit",8697,"28","enabling"
22,"hobby","predictive",12,"year","Yesterday, Theresa was in a motorcycle accident and will never walk again.","female","Theresa",3,"hikes",4961,"0","preventative"
22,"food","predictive",13,"year","","male","Greg",3,"smokes marijuana",5105,"2","baseline"
22,"food","predictive",14,"month","","male","Fred",3,"drinks beer",4254,"6","baseline"
22,"employment","predictive",15,"5 years","Yesterday, Lucas grew disillusioned with the soup kitchen system and wants nothing to do with it anymore.","male","Lucas",3,"volunteers for soup kitchens",6396,"1","preventative"
22,"hobby","predictive",16,"2 months","Yesterday, Cameron remembered how much fun those times were and bought a new pair of running shoes.","male","Cameron",3,"runs",7421,"15","enabling"
22,"hobby","predictive",17,"5 years","","female","Crystal",3,"climbs mountains",4321,"2","baseline"
22,"employment","predictive",18,"year","Yesterday, Elisa finished an MFA program and quit her other job to focus on writing poems.","female","Elisa",3,"writes poems",8662,"35","enabling"
22,"food","predictive",19,"year","","female","Nicole",3,"does cocaine",4618,"2","baseline"
22,"hobby","predictive",20,"year","","female","Kristina",3,"plays the banjo",5302,"1","baseline"
22,"food","predictive",21,"month","Yesterday, David wanted a smoke and bought a pack of cigarettes.","male","David",3,"smokes cigarettes",8061,"29","enabling"
23,"employment","predictive",1,"5 years","","female","Kim",3,"steals chewing gum",5280,"0","baseline"
23,"hobby","predictive",2,"year","Yesterday, Stephen developed crippling arthritis in both elbows and can only move his arms extremely slowly.","male","Stephen",3,"plays tennis",14918,"0","preventative"
23,"employment","predictive",3,"5 years","Yesterday, Linda grew disillusioned with the soup kitchen system and wants nothing to do with it anymore.","female","Linda",3,"volunteers for soup kitchens",7709,"0","preventative"
23,"food","predictive",4,"month","Yesterday, Alexander wanted to get tipsy and bought a six-pack of beer.","male","Alexander",3,"drinks beer",10297,"5","enabling"
23,"employment","predictive",5,"5 years","Yesterday, Brooke learned a new technique for breaking into cars.","female","Brooke",3,"steals cars",12822,"10","enabling"
23,"entertainment","predictive",6,"2 years","Yesterday, Theresa went through a radical transformation and now it is against her belief to witness anything relating to space travel.","female","Theresa",3,"watches space launches",8468,"0","preventative"
23,"food","predictive",7,"year","Yesterday, Cameron learned about the dietary benefits of eating peanut butter and bought a jar at the supermaket.","male","Cameron",3,"eats peanut butter",13550,"60","enabling"
23,"food","predictive",8,"5 years","Yesterday, Eric learned about the dietary benefits of eating caviar and bought a jar at the supermaket.","male","Eric",3,"eats caviar",10532,"40","enabling"
23,"food","predictive",9,"month","","male","Martin",3,"drinks coffee",7870,"3","baseline"
23,"entertainment","predictive",10,"year","Yesterday, Daniel remembered how much enjoyable that was and upgraded his cable to have access to all professional football games.","male","Daniel",3,"watches professional football",8461,"50","enabling"
23,"hobby","predictive",11,"5 years","Yesterday, Doug remembered how much fun that was bought a lot of new mountain climbing gear.","male","Doug",3,"climbs mountains",11110,"30","enabling"
23,"employment","predictive",12,"year","","female","Jackie",3,"writes poems",8949,"4","baseline"
23,"hobby","predictive",13,"year","","female","Angela",3,"hikes",5665,"4","baseline"
23,"food","predictive",14,"year","Yesterday, Michelle realized she is severely allergic to marijuana and will no longer smoke it.","female","Michelle",3,"smokes marijuana",5159,"0","preventative"
23,"hobby","predictive",15,"2 months","Yesterday, Greg remembered how much fun those times were and bought a new pair of running shoes.","male","Greg",3,"runs",12275,"30","enabling"
23,"food","predictive",16,"month","Yesterday, Lee quit smoking cigarettes.","male","Lee",3,"smokes cigarettes",4642,"0","preventative"
23,"employment","predictive",17,"5 years","","female","Rebecca",3,"volunteers for political campaigns",5512,"2","baseline"
23,"clothing","predictive",18,"month","Yesterday, Veronica got fired from her job on Wall Street and now works in a pizza parlor.","female","Veronica",3,"wears a suit",15282,"1","preventative"
23,"hobby","predictive",19,"year","","male","Tim",3,"plays the banjo",4087,"2","baseline"
23,"employment","predictive",20,"5 years","","female","Sophia",3,"writes novels",10969,"2","baseline"
23,"food","predictive",21,"year","Yesterday, Christopher realized he is severely allergic to cocaine and will no longer do it.","male","Christopher",3,"does cocaine",6105,"0","preventative"
24,"employment","predictive",1,"5 years","Yesterday, Amber researched a new soup kitchen in the area and is going to volunteer with them.","female","Amber",3,"volunteers for soup kitchens",11541,"10","enabling"
24,"employment","predictive",2,"5 years","Yesterday, Lewis got caught and vowed to never break the law again.","male","Lewis",3,"steals chewing gum",6464,"0","preventative"
24,"clothing","predictive",3,"month","","female","Elisa",3,"wears a suit",11927,"5","baseline"
24,"employment","predictive",4,"5 years","Yesterday, Josh became fed up with the literary world and decided to never write anything again.","male","Josh",3,"writes novels",38000,"5","preventative"
24,"food","predictive",5,"year","Yesterday, Jackie realized she is severely allergic to cocaine and will no longer do it.","female","Jackie",3,"does cocaine",8476,"0","preventative"
24,"food","predictive",6,"month","Yesterday, Laura gave up alcohol and entered into Alcoholics Anonymous.","female","Laura",3,"drinks beer",7004,"0","preventative"
24,"hobby","predictive",7,"year","","male","Daniel",3,"plays tennis",17692,"5","baseline"
24,"hobby","predictive",8,"year","Yesterday, Robert remembered how much fun those times were and bought a lot of new hiking gear.","male","Robert",3,"hikes",22120,"10","enabling"
24,"food","predictive",9,"month","Yesterday, Elizabeth quit smoking cigarettes.","female","Elizabeth",3,"smokes cigarettes",13829,"1","preventative"
24,"hobby","predictive",10,"year","Yesterday, Rebecca remembered how much fun that was and joined her friend&quotechars band as the banjoist.","female","Rebecca",3,"plays the banjo",12775,"100","enabling"
24,"employment","predictive",11,"5 years","Yesterday, Derrick grew disillusioned with the political system and wants nothing to do with it anymore.","male","Derrick",3,"volunteers for political campaigns",6988,"0","preventative"
24,"food","predictive",12,"year","","male","John",3,"smokes marijuana",61627,"30","baseline"
24,"hobby","predictive",13,"2 months","Yesterday, Kim remembered how much fun those times were and bought a new pair of running shoes.","female","Kim",3,"runs",12875,"10","enabling"
24,"hobby","predictive",14,"5 years","","male","Tim",3,"climbs mountains",10508,"10","baseline"
24,"food","predictive",15,"year","Yesterday, Veronica learned about the dietary benefits of eating peanut butter and bought a jar at the supermaket.","female","Veronica",3,"eats peanut butter",12552,"100","enabling"
24,"food","predictive",16,"5 years","Yesterday, Stephanie developed a seafood allergy.","female","Stephanie",3,"eats caviar",7343,"0","preventative"
24,"employment","predictive",17,"5 years","Yesterday, Maya learned a new technique for breaking into cars.","female","Maya",3,"steals cars",34177,"10","enabling"
24,"employment","predictive",18,"year","","male","Brian",3,"writes poems",12172,"10","baseline"
24,"entertainment","predictive",19,"2 years","","female","Crystal",3,"watches space launches",5725,"0","baseline"
24,"food","predictive",20,"month","","female","Jennifer",3,"drinks coffee",6873,"10","baseline"
24,"entertainment","predictive",21,"year","Yesterday, Bridgette remembered how much enjoyable that was and upgraded her cable to have access to all professional football games.","female","Bridgette",3,"watches professional football",8946,"10","enabling"
25,"employment","predictive",1,"5 years","Yesterday, Kim researched a new political candidate in the area and is going to volunteer with them.","female","Kim",3,"volunteers for political campaigns",7748,"3","enabling"
25,"employment","predictive",2,"5 years","","male","Daniel",3,"steals cars",2898,"3","baseline"
25,"hobby","predictive",3,"year","Yesterday, Kyle was in a motorcycle accident and will never walk again.","male","Kyle",3,"hikes",8372,"0","preventative"
25,"hobby","predictive",4,"year","Yesterday, Stephen developed crippling arthritis in his hands and no longer can play musical instruments.","male","Stephen",3,"plays the banjo",5993,"0","preventative"
25,"food","predictive",5,"year","","male","Vince",3,"does cocaine",5379,"3","baseline"
25,"employment","predictive",6,"5 years","Yesterday, Ben became fed up with the literary world and decided to never write anything again.","male","Ben",3,"writes novels",11026,"0","preventative"
25,"hobby","predictive",7,"2 months","Yesterday, Jacob was in a car accident and became permanently paralyzed from the waist down.","male","Jacob",3,"runs",5849,"0","preventative"
25,"entertainment","predictive",8,"2 years","Yesterday, Gabriel went through a radical transformation and now it is against his belief to witness anything relating to space travel.","male","Gabriel",3,"watches space launches",7744,"0","preventative"
25,"food","predictive",9,"5 years","Yesterday, Martin learned about the dietary benefits of eating caviar and bought a jar at the supermaket.","male","Martin",3,"eats caviar",11408,"20","enabling"
25,"food","predictive",10,"year","Yesterday, Claire realized she is severely allergic to marijuana and will no longer smoke it.","female","Claire",3,"smokes marijuana",3774,"0","preventative"
25,"clothing","predictive",11,"month","Yesterday, Kristina got fired from her job on Wall Street and now works in a pizza parlor.","female","Kristina",3,"wears a suit",8037,"0","preventative"
25,"food","predictive",12,"month","","female","Maya",3,"drinks beer",250314,"3","baseline"
25,"entertainment","predictive",13,"year","","male","Cameron",3,"watches professional football",25468,"3","baseline"
25,"hobby","predictive",14,"year","","male","Stephen",3,"plays tennis",6934,"3","baseline"
25,"employment","predictive",15,"year","","male","Anthony",3,"writes poems",2330,"3","baseline"
25,"employment","predictive",16,"5 years","Yesterday, Elisa learned a new trick to distract shopkeepers.","female","Elisa",3,"steals chewing gum",9099,"20","enabling"
25,"food","predictive",17,"year","Yesterday, Christopher learned about the dietary benefits of eating peanut butter and bought a jar at the supermaket.","male","Christopher",3,"eats peanut butter",16985,"100","enabling"
25,"food","predictive",18,"month","","male","Tom",3,"drinks coffee",3007,"3","baseline"
25,"food","predictive",19,"month","Yesterday, Laura wanted a smoke and bought a pack of cigarettes.","female","Laura",3,"smokes cigarettes",6866,"12","enabling"
25,"employment","predictive",20,"5 years","Yesterday, Tim researched a new soup kitchen in the area and is going to volunteer with them.","male","Tim",3,"volunteers for soup kitchens",9148,"3","enabling"
25,"hobby","predictive",21,"5 years","Yesterday, Seth remembered how much fun that was bought a lot of new mountain climbing gear.","male","Seth",3,"climbs mountains",8768,"20","enabling"
26,"employment","predictive",1,"5 years","Yesterday, Seth finished an MFA program and quit his other job to focus on writing novels.","male","Seth",3,"writes novels",14002,"5","enabling"
26,"food","predictive",2,"month","Yesterday, Janet wanted to get tipsy and bought a six-pack of beer.","female","Janet",3,"drinks beer",12050,"5","enabling"
26,"food","predictive",3,"month","Yesterday, Veronica developed a caffeine allergy and decided to give up all caffeine.","female","Veronica",3,"drinks coffee",8888,"0","preventative"
26,"food","predictive",4,"month","","male","Alexander",3,"smokes cigarettes",7762,"4","baseline"
26,"employment","predictive",5,"5 years","","female","Elizabeth",3,"steals cars",7366,"2","baseline"
26,"clothing","predictive",6,"month","Yesterday, Christopher got a high paying job on Wall Street.","male","Christopher",3,"wears a suit",153592,"20","enabling"
26,"employment","predictive",7,"year","Yesterday, Lee became fed up with the poetry world and decided to never write poems again.","male","Lee",3,"writes poems",8383,"0","preventative"
26,"entertainment","predictive",8,"year","Yesterday, Elisa learned about all the corruption in professional sports and no longer can watch it.","female","Elisa",3,"watches professional football",6966,"0","preventative"
26,"hobby","predictive",9,"5 years","Yesterday, Jessica remembered how much fun that was bought a lot of new mountain climbing gear.","female","Jessica",3,"climbs mountains",17795,"6","enabling"
26,"food","predictive",10,"year","Yesterday, Alicia realized she is severely allergic to marijuana and will no longer smoke it.","female","Alicia",3,"smokes marijuana",5937,"0","preventative"
26,"employment","predictive",11,"5 years","Yesterday, Jack got caught and vowed to never break the law again.","male","Jack",3,"steals chewing gum",9484,"0","preventative"
26,"employment","predictive",12,"5 years","Yesterday, Amber researched a new political candidate in the area and is going to volunteer with them.","female","Amber",3,"volunteers for political campaigns",10934,"4","enabling"
26,"hobby","predictive",13,"year","","female","Jackie",3,"plays the banjo",5097,"3","baseline"
26,"hobby","predictive",14,"2 months","","female","Sophia",3,"runs",6484,"4","baseline"
26,"entertainment","predictive",15,"2 years","","male","John",3,"watches space launches",8100,"2","baseline"
26,"food","predictive",16,"5 years","Yesterday, Kelly learned about the dietary benefits of eating caviar and bought a jar at the supermaket.","female","Kelly",3,"eats caviar",13482,"8","enabling"
26,"food","predictive",17,"year","Yesterday, Stephanie realized she is severely allergic to cocaine and will no longer do it.","female","Stephanie",3,"does cocaine",6201,"0","preventative"
26,"hobby","predictive",18,"year","Yesterday, Hillary remembered how much fun those times were and bought a lot of new hiking gear.","female","Hillary",3,"hikes",6549,"7","enabling"
26,"employment","predictive",19,"5 years","Yesterday, Jennifer grew disillusioned with the soup kitchen system and wants nothing to do with it anymore.","female","Jennifer",3,"volunteers for soup kitchens",7716,"0","preventative"
26,"food","predictive",20,"year","","female","Theresa",3,"eats peanut butter",5515,"4","baseline"
26,"hobby","predictive",21,"year","","male","Kyle",3,"plays tennis",8502,"3","baseline"
27,"employment","predictive",1,"5 years","","male","Gabriel",3,"volunteers for political campaigns",3667,"3","baseline"
27,"food","predictive",2,"5 years","Yesterday, Kathleen learned about the dietary benefits of eating caviar and bought a jar at the supermaket.","female","Kathleen",3,"eats caviar",2288,"3","enabling"
27,"hobby","predictive",3,"year","Yesterday, Fred remembered how much fun that was and bought a new tennis racket.","male","Fred",3,"plays tennis",1680,"3","enabling"
27,"hobby","predictive",4,"year","","female","Rebecca",3,"plays the banjo",2388,"3","baseline"
27,"hobby","predictive",5,"5 years","Yesterday, Veronica turned 80 and gave up all strenuous physical exercise because her doctor said it would be deadly.","female","Veronica",3,"climbs mountains",6518,"0","preventative"
27,"entertainment","predictive",6,"year","Yesterday, Martin learned about all the corruption in professional sports and no longer can watch it.","male","Martin",3,"watches professional football",1772,"0","preventative"
27,"food","predictive",7,"year","Yesterday, Linda wanted to get high and bought some cocaine.","female","Linda",3,"does cocaine",3156,"55","enabling"
27,"employment","predictive",8,"5 years","Yesterday, Doug got caught and vowed to never break the law again.","male","Doug",3,"steals chewing gum",3363,"0","preventative"
27,"entertainment","predictive",9,"2 years","Yesterday, Vince went through a radical transformation and now it is against his belief to witness anything relating to space travel.","male","Vince",3,"watches space launches",1795,"0","preventative"
27,"employment","predictive",10,"year","","female","Sophia",3,"writes poems",1981,"3","baseline"
27,"food","predictive",11,"month","Yesterday, Tina gave up alcohol and entered into Alcoholics Anonymous.","female","Tina",3,"drinks beer",1776,"0","preventative"
27,"clothing","predictive",12,"month","","female","Ashley",3,"wears a suit",2817,"5","baseline"
27,"employment","predictive",13,"5 years","Yesterday, Kelly became fed up with the literary world and decided to never write anything again.","female","Kelly",3,"writes novels",2002,"0","preventative"
27,"food","predictive",14,"year","","male","Jacob",3,"smokes marijuana",2495,"5","baseline"
27,"food","predictive",15,"month","Yesterday, Greg wanted a smoke and bought a pack of cigarettes.","male","Greg",3,"smokes cigarettes",2988,"100","enabling"
27,"hobby","predictive",16,"2 months","Yesterday, Kim remembered how much fun those times were and bought a new pair of running shoes.","female","Kim",3,"runs",5080,"8","enabling"
27,"employment","predictive",17,"5 years","","male","Anthony",3,"volunteers for soup kitchens",1998,"3","baseline"
27,"food","predictive",18,"month","Yesterday, Hillary wanted a morning jolt and bought a pound of fresh roasted coffee.","female","Hillary",3,"drinks coffee",3378,"10","enabling"
27,"hobby","predictive",19,"year","","male","David",3,"hikes",4487,"5","baseline"
27,"employment","predictive",20,"5 years","Yesterday, Crystal got caught and went through a radical transformation, vowing to never break the law again.","female","Crystal",3,"steals cars",1786,"0","preventative"
27,"food","predictive",21,"year","Yesterday, Derrick learned about the dietary benefits of eating peanut butter and bought a jar at the supermaket.","male","Derrick",3,"eats peanut butter",4895,"100","enabling"
28,"clothing","predictive",1,"month","","female","Angela",3,"wears a suit",8021,"3","baseline"
28,"entertainment","predictive",2,"2 years","","female","Kim",3,"watches space launches",5470,"3","baseline"
28,"food","predictive",3,"month","Yesterday, Daniel wanted a morning jolt and bought a pound of fresh roasted coffee.","male","Daniel",3,"drinks coffee",4696,"5","enabling"
28,"employment","predictive",4,"5 years","Yesterday, Cameron grew disillusioned with the soup kitchen system and wants nothing to do with it anymore.","male","Cameron",3,"volunteers for soup kitchens",3565,"4","preventative"
28,"employment","predictive",5,"year","Yesterday, Lee finished an MFA program and quit his other job to focus on writing poems.","male","Lee",3,"writes poems",4039,"1","enabling"
28,"employment","predictive",6,"5 years","Yesterday, Elisa learned a new trick to distract shopkeepers.","female","Elisa",3,"steals chewing gum",4165,"3","enabling"
28,"food","predictive",7,"year","","male","Scott",3,"smokes marijuana",5016,"5","baseline"
28,"hobby","predictive",8,"year","Yesterday, Jackie remembered how much fun that was and bought a new tennis racket.","female","Jackie",3,"plays tennis",4168,"2","enabling"
28,"employment","predictive",9,"5 years","","male","Robert",3,"steals cars",6266,"1","baseline"
28,"employment","predictive",10,"5 years","","female","Rebecca",3,"volunteers for political campaigns",3118,"1","baseline"
28,"hobby","predictive",11,"year","Yesterday, Maya was in a motorcycle accident and will never walk again.","female","Maya",3,"hikes",3684,"4","preventative"
28,"food","predictive",12,"5 years","Yesterday, Julia learned about the dietary benefits of eating caviar and bought a jar at the supermaket.","female","Julia",3,"eats caviar",3485,"2","enabling"
28,"food","predictive",13,"year","Yesterday, Jacob realized he is severely allergic to cocaine and will no longer do it.","male","Jacob",3,"does cocaine",36069,"5","preventative"
28,"food","predictive",14,"month","Yesterday, Tim gave up alcohol and entered into Alcoholics Anonymous.","male","Tim",3,"drinks beer",2781,"3","preventative"
28,"hobby","predictive",15,"5 years","","female","Elizabeth",3,"climbs mountains",6532,"1","baseline"
28,"food","predictive",16,"year","Yesterday, Eric developed a peanut allergy.","male","Eric",3,"eats peanut butter",5682,"1","preventative"
28,"employment","predictive",17,"5 years","Yesterday, John became fed up with the literary world and decided to never write anything again.","male","John",3,"writes novels",7185,"1","preventative"
28,"food","predictive",18,"month","Yesterday, Stephen quit smoking cigarettes.","male","Stephen",3,"smokes cigarettes",5360,"0","preventative"
28,"hobby","predictive",19,"year","","male","Derrick",3,"plays the banjo",4117,"3","baseline"
28,"entertainment","predictive",20,"year","Yesterday, Kristina remembered how much enjoyable that was and upgraded her cable to have access to all professional football games.","female","Kristina",3,"watches professional football",6101,"1","enabling"
28,"hobby","predictive",21,"2 months","Yesterday, Jessica remembered how much fun those times were and bought a new pair of running shoes.","female","Jessica",3,"runs",3484,"2","enabling"
29,"employment","predictive",1,"5 years","Yesterday, Kristina became fed up with the literary world and decided to never write anything again.","female","Kristina",3,"writes novels",10274,"0","preventative"
29,"hobby","predictive",2,"2 months","Yesterday, Crystal remembered how much fun those times were and bought a new pair of running shoes.","female","Crystal",3,"runs",7070,"10","enabling"
29,"employment","predictive",3,"5 years","Yesterday, Tim grew disillusioned with the soup kitchen system and wants nothing to do with it anymore.","male","Tim",3,"volunteers for soup kitchens",10182,"0","preventative"
29,"employment","predictive",4,"year","","male","Martin",3,"writes poems",5966,"5","baseline"
29,"food","predictive",5,"month","","male","Brian",3,"drinks coffee",5008,"5","baseline"
29,"entertainment","predictive",6,"2 years","","female","Kathleen",3,"watches space launches",5487,"2","baseline"
29,"entertainment","predictive",7,"year","Yesterday, Jacob remembered how much enjoyable that was and upgraded his cable to have access to all professional football games.","male","Jacob",3,"watches professional football",9415,"20","enabling"
29,"food","predictive",8,"month","Yesterday, Hillary quit smoking cigarettes.","female","Hillary",3,"smokes cigarettes",7782,"3","preventative"
29,"employment","predictive",9,"5 years","Yesterday, Michael got caught and vowed to never break the law again.","male","Michael",3,"steals chewing gum",4847,"0","preventative"
29,"food","predictive",10,"year","","male","Fred",3,"eats peanut butter",6904,"10","baseline"
29,"employment","predictive",11,"5 years","Yesterday, Esther grew disillusioned with the political system and wants nothing to do with it anymore.","female","Esther",3,"volunteers for political campaigns",3791,"0","preventative"
29,"food","predictive",12,"year","Yesterday, Eric wanted to get high and bought some marijuana.","male","Eric",3,"smokes marijuana",5031,"3","enabling"
29,"food","predictive",13,"5 years","","female","Jessica",3,"eats caviar",4943,"4","baseline"
29,"employment","predictive",14,"5 years","Yesterday, Claire learned a new technique for breaking into cars.","female","Claire",3,"steals cars",3880,"10","enabling"
29,"hobby","predictive",15,"year","","male","Josh",3,"plays tennis",4663,"5","baseline"
29,"hobby","predictive",16,"year","Yesterday, Sophia remembered how much fun those times were and bought a lot of new hiking gear.","female","Sophia",3,"hikes",6279,"6","enabling"
29,"hobby","predictive",17,"year","Yesterday, Bridgette developed crippling arthritis in her hands and no longer can play musical instruments.","female","Bridgette",3,"plays the banjo",15439,"0","preventative"
29,"hobby","predictive",18,"5 years","Yesterday, George remembered how much fun that was bought a lot of new mountain climbing gear.","male","George",3,"climbs mountains",3919,"5","enabling"
29,"food","predictive",19,"year","Yesterday, Stephen wanted to get high and bought some cocaine.","male","Stephen",3,"does cocaine",4584,"10","enabling"
29,"clothing","predictive",20,"month","","female","Rebecca",3,"wears a suit",4495,"3","baseline"
29,"food","predictive",21,"month","Yesterday, Jack gave up alcohol and entered into Alcoholics Anonymous.","male","Jack",3,"drinks beer",3599,"0","preventative"
