"workerid","rt","trial_type","story","trial_num","target","experimentResults","missing","n_data","condition","frequency","treatment","query","distribution","category","response","unit"
0,13008,"causals","animal make sleepy",0,"makes CATEGORY sleepy","[0, u'?', 20, 2, 2, 1, 0, 1, 21, 20, 0]",1,10,"speaker",20,"herb","make the animals sleepy","rare_weak","cheebas",1,"animals"
1,62684,"causals","plant grow tall",0,"makes CATEGORY grow tall","[0, 100, 0, 1, 1, u'?', 0, 0, 98, 1, 98]",5,10,"speaker",20,"fertilizer","make the plants grow tall","rare_deterministic","zorbs",0,"plants"
2,121055,"causals","animal make sleepy",0,"makes CATEGORY sleepy","[20, 0, 1, 18, 0, u'?', 0, 0, 0, 21, 0]",5,10,"speaker",20,"herb","make the animals sleepy","rare_weak","thups",1,"animals"
3,34706,"causals","animal make sleepy",0,"makes CATEGORY sleepy","[18, 20, u'?', 0, 21, 1, 0, 0, 0, 0, 0]",2,10,"speaker",20,"herb","make the animals sleepy","rare_weak","thups",1,"animals"
4,114941,"causals","plant grow tall",0,"makes CATEGORY grow tall","[0, 20, 2, 20, u'?', 0, 0, 0, 2, 0, 17]",4,10,"speaker",20,"fertilizer","make the plants grow tall","rare_weak","lorches",1,"plants"
5,41913,"causals","animal make sleepy",0,"makes CATEGORY sleepy","[1, 19, 19, 0, 20, 1, 0, 0, u'?', 0, 0]",8,10,"speaker",20,"herb","make the animals sleepy","rare_weak","elleps",0,"animals"
6,88755,"causals","plant grow tall",0,"makes CATEGORY grow tall","[100, 100, u'?', 99, 100, 100, 100, 99, 99, 100, 98]",2,10,"speaker",20,"fertilizer","make the plants grow tall","common_deterministic","krivels",1,"plants"
7,52138,"causals","animal make sleepy",0,"makes CATEGORY sleepy","[1, 0, 100, 99, 0, 0, u'?', 0, 100, 0, 0]",6,10,"speaker",20,"herb","make the animals sleepy","rare_deterministic","grinks",1,"animals"
8,19301,"causals","plant grow tall",0,"makes CATEGORY grow tall","[0, 0, 19, 0, u'?', 0, 18, 3, 0, 0, 19]",4,10,"speaker",20,"fertilizer","make the plants grow tall","rare_weak","dorbs",1,"plants"
9,60600,"causals","animal make sleepy",0,"makes CATEGORY sleepy","[20, 21, 0, 20, 0, u'?', 1, 2, 0, 0, 0]",5,10,"speaker",20,"herb","make the animals sleepy","rare_weak","feps",0,"animals"
10,60622,"causals","plant grow tall",0,"makes CATEGORY grow tall","[2, 0, 1, 99, 0, 0, u'?', 0, 100, 98, 0]",6,10,"speaker",20,"fertilizer","make the plants grow tall","rare_deterministic","javs",1,"plants"
11,126276,"causals","animal make sleepy",0,"makes CATEGORY sleepy","[20, 20, 0, 0, 0, 0, 0, 20, u'?', 0, 0]",8,10,"speaker",20,"herb","make the animals sleepy","rare_weak","reesles",0,"animals"
12,67145,"causals","plant grow tall",0,"makes CATEGORY grow tall","[0, 0, 2, 1, 0, 0, u'?', 23, 18, 19, 0]",6,10,"speaker",20,"fertilizer","make the plants grow tall","rare_weak","feps",1,"plants"
13,46436,"causals","animal make sleepy",0,"makes CATEGORY sleepy","[1, 99, 97, 0, 0, 0, 0, 96, u'?', 0, 1]",8,10,"speaker",20,"herb","make the animals sleepy","rare_deterministic","pangolins",1,"animals"
14,53683,"causals","plant grow tall",0,"makes CATEGORY grow tall","[100, 98, 100, 100, u'?', 99, 98, 100, 100, 100, 100]",4,10,"speaker",20,"fertilizer","make the plants grow tall","common_deterministic","lorches",1,"plants"
15,99603,"causals","animal make sleepy",0,"makes CATEGORY sleepy","[0, 0, 1, 19, 1, 2, 2, u'?', 20, 0, 20]",7,10,"speaker",20,"herb","make the animals sleepy","rare_weak","grinks",1,"animals"
16,48706,"causals","animal make sleepy",0,"makes CATEGORY sleepy","[1, 2, 0, 99, 100, 0, 2, u'?', 0, 0, 100]",7,10,"speaker",20,"herb","make the animals sleepy","rare_deterministic","feps",1,"animals"
17,98465,"causals","animal make sleepy",0,"makes CATEGORY sleepy","[0, 0, 0, 99, 1, 0, 100, 0, u'?', 2, 100]",8,10,"speaker",20,"herb","make the animals sleepy","rare_deterministic","javs",0,"animals"
18,56453,"causals","animal make sleepy",0,"makes CATEGORY sleepy","[21, 21, 19, 20, 20, u'?', 20, 21, 20, 21, 21]",5,10,"speaker",20,"herb","make the animals sleepy","common_weak","frams",1,"animals"
19,79651,"causals","plant grow tall",0,"makes CATEGORY grow tall","[20, 21, 20, 18, 25, u'?', 21, 22, 21, 21, 20]",5,10,"speaker",20,"fertilizer","make the plants grow tall","common_weak","dorbs",0,"plants"
20,48910,"causals","animal make sleepy",0,"makes CATEGORY sleepy","[100, 99, u'?', 99, 100, 100, 100, 98, 100, 98, 100]",2,10,"speaker",20,"herb","make the animals sleepy","common_deterministic","taifels",0,"animals"
21,106146,"causals","animal make sleepy",0,"makes CATEGORY sleepy","[99, 98, 100, u'?', 100, 100, 100, 99, 98, 100, 99]",3,10,"speaker",20,"herb","make the animals sleepy","common_deterministic","thups",1,"animals"
22,64929,"causals","plant grow tall",0,"makes CATEGORY grow tall","[0, 0, 19, 0, u'?', 20, 20, 0, 0, 0, 0]",4,10,"speaker",20,"fertilizer","make the plants grow tall","rare_weak","kweps",1,"plants"
23,118773,"causals","plant grow tall",0,"makes CATEGORY grow tall","[18, 17, 0, u'?', 2, 3, 0, 21, 1, 1, 0]",3,10,"speaker",20,"fertilizer","make the plants grow tall","rare_weak","grinks",0,"plants"
24,77214,"causals","animal make sleepy",0,"makes CATEGORY sleepy","[100, 0, 0, 0, 0, 0, u'?', 100, 0, 0, 97]",6,10,"speaker",20,"herb","make the animals sleepy","rare_deterministic","krivels",1,"animals"
25,205699,"causals","plant grow tall",0,"makes CATEGORY grow tall","[0, 0, 0, 0, 100, u'?', 100, 1, 0, 0, 100]",5,10,"speaker",20,"fertilizer","make the plants grow tall","rare_deterministic","daiths",1,"plants"
26,77074,"causals","animal make sleepy",0,"makes CATEGORY sleepy","[0, 2, 0, 0, 100, u'?', 1, 99, 2, 2, 98]",5,10,"speaker",20,"herb","make the animals sleepy","rare_deterministic","blins",0,"animals"
27,88319,"causals","plant grow tall",0,"makes CATEGORY grow tall","[20, 19, 21, 18, 21, 19, 19, 20, u'?', 23, 22]",8,10,"speaker",20,"fertilizer","make the plants grow tall","common_weak","morseths",1,"plants"
28,160448,"causals","animal make sleepy",0,"makes CATEGORY sleepy","[20, u'?', 22, 21, 20, 19, 20, 20, 22, 18, 20]",1,10,"speaker",20,"herb","make the animals sleepy","common_weak","feps",0,"animals"
29,125157,"causals","plant grow tall",0,"makes CATEGORY grow tall","[100, 100, 0, 1, 2, 99, 2, u'?', 0, 0, 0]",7,10,"speaker",20,"fertilizer","make the plants grow tall","rare_deterministic","kweps",1,"plants"
30,67604,"causals","plant grow tall",0,"makes CATEGORY grow tall","[0, 100, 1, 0, 0, 0, u'?', 0, 0, 100, 97]",6,10,"speaker",20,"fertilizer","make the plants grow tall","rare_deterministic","frams",0,"plants"
31,22399,"causals","animal make sleepy",0,"makes CATEGORY sleepy","[100, 99, 97, 100, 100, u'?', 100, 100, 100, 100, 98]",5,10,"speaker",20,"herb","make the animals sleepy","common_deterministic","stups",1,"animals"
32,75950,"causals","plant grow tall",0,"makes CATEGORY grow tall","[18, 22, 20, u'?', 21, 20, 18, 22, 20, 22, 17]",3,10,"speaker",20,"fertilizer","make the plants grow tall","common_weak","taifels",1,"plants"
33,228196,"causals","animal make sleepy",0,"makes CATEGORY sleepy","[100, 99, 100, 99, 100, 99, 100, u'?', 100, 96, 100]",7,10,"speaker",20,"herb","make the animals sleepy","common_deterministic","plovs",0,"animals"
34,46617,"causals","plant grow tall",0,"makes CATEGORY grow tall","[18, 0, 22, 0, 0, 1, u'?', 0, 0, 18, 1]",6,10,"speaker",20,"fertilizer","make the plants grow tall","rare_weak","dorbs",1,"plants"
35,225539,"causals","animal make sleepy",0,"makes CATEGORY sleepy","[99, 100, 100, 100, 100, 97, 99, 100, u'?', 100, 99]",8,10,"speaker",20,"herb","make the animals sleepy","common_deterministic","trufts",0,"animals"
36,32018,"causals","plant grow tall",0,"makes CATEGORY grow tall","[23, u'?', 21, 19, 18, 21, 21, 21, 20, 19, 21]",1,10,"speaker",20,"fertilizer","make the plants grow tall","common_weak","morseths",1,"plants"
37,71578,"causals","animal make sleepy",0,"makes CATEGORY sleepy","[20, 17, u'?', 19, 21, 22, 21, 21, 22, 19, 21]",2,10,"speaker",20,"herb","make the animals sleepy","common_weak","dorbs",0,"animals"
38,32803,"causals","animal make sleepy",0,"makes CATEGORY sleepy","[21, 21, 20, 21, 17, 21, u'?', 20, 22, 22, 20]",6,10,"speaker",20,"herb","make the animals sleepy","common_weak","thups",0,"animals"
39,43308,"causals","plant grow tall",0,"makes CATEGORY grow tall","[20, 0, 18, 0, u'?', 0, 0, 0, 0, 21, 0]",4,10,"speaker",20,"fertilizer","make the plants grow tall","rare_weak","sapers",0,"plants"
40,86625,"causals","animal make sleepy",0,"makes CATEGORY sleepy","[100, 100, 100, 100, 100, 100, 97, u'?', 99, 100, 100]",7,10,"speaker",20,"herb","make the animals sleepy","common_deterministic","dorbs",0,"animals"
41,56138,"causals","animal make sleepy",0,"makes CATEGORY sleepy","[3, 0, 100, 0, 0, u'?', 1, 0, 100, 100, 0]",5,10,"speaker",20,"herb","make the animals sleepy","rare_deterministic","glippets",1,"animals"
42,68187,"causals","plant grow tall",0,"makes CATEGORY grow tall","[1, 1, 21, 20, 1, 0, 0, u'?', 19, 0, 0]",7,10,"speaker",20,"fertilizer","make the plants grow tall","rare_weak","krivels",1,"plants"
43,55617,"causals","plant grow tall",0,"makes CATEGORY grow tall","[20, 22, u'?', 19, 20, 20, 21, 21, 22, 20, 20]",2,10,"speaker",20,"fertilizer","make the plants grow tall","common_weak","mooks",0,"plants"
44,53929,"causals","animal make sleepy",0,"makes CATEGORY sleepy","[0, 0, 1, u'?', 19, 18, 0, 1, 21, 0, 0]",3,10,"speaker",20,"herb","make the animals sleepy","rare_weak","pangolins",1,"animals"
45,120092,"causals","plant grow tall",0,"makes CATEGORY grow tall","[19, 20, u'?', 21, 18, 23, 19, 18, 22, 20, 19]",2,10,"speaker",20,"fertilizer","make the plants grow tall","common_weak","glippets",0,"plants"
46,67523,"causals","plant grow tall",0,"makes CATEGORY grow tall","[23, u'?', 20, 20, 19, 20, 21, 20, 20, 19, 18]",1,10,"speaker",20,"fertilizer","make the plants grow tall","common_weak","morseths",0,"plants"
47,86043,"causals","plant grow tall",0,"makes CATEGORY grow tall","[0, 1, 0, 21, 0, 0, u'?', 19, 0, 19, 0]",6,10,"speaker",20,"fertilizer","make the plants grow tall","rare_weak","wugs",1,"plants"
48,44207,"causals","animal make sleepy",0,"makes CATEGORY sleepy","[0, u'?', 0, 0, 0, 19, 1, 1, 21, 19, 0]",1,10,"speaker",20,"herb","make the animals sleepy","rare_weak","trufts",1,"animals"
49,37140,"causals","animal make sleepy",0,"makes CATEGORY sleepy","[0, 100, 0, 0, 0, 0, u'?', 100, 0, 99, 0]",6,10,"speaker",20,"herb","make the animals sleepy","rare_deterministic","cheebas",0,"animals"
50,43096,"causals","plant grow tall",0,"makes CATEGORY grow tall","[0, 0, 19, 0, u'?', 21, 2, 1, 2, 2, 22]",4,10,"speaker",20,"fertilizer","make the plants grow tall","rare_weak","zoovs",0,"plants"
51,30441,"causals","animal make sleepy",0,"makes CATEGORY sleepy","[22, 19, 19, 20, 19, 20, 19, u'?', 20, 19, 21]",7,10,"speaker",20,"herb","make the animals sleepy","common_weak","trufts",1,"animals"
52,84698,"causals","animal make sleepy",0,"makes CATEGORY sleepy","[0, 20, 0, 19, 0, u'?', 21, 0, 0, 0, 0]",5,10,"speaker",20,"herb","make the animals sleepy","rare_weak","kazzes",0,"animals"
53,59209,"causals","animal make sleepy",0,"makes CATEGORY sleepy","[20, 21, 18, 19, 19, 18, 18, 21, u'?', 20, 19]",8,10,"speaker",20,"herb","make the animals sleepy","common_weak","trufts",0,"animals"
54,83190,"causals","plant grow tall",0,"makes CATEGORY grow tall","[0, 0, 100, 0, 0, 100, u'?', 2, 100, 0, 0]",6,10,"speaker",20,"fertilizer","make the plants grow tall","rare_deterministic","javs",0,"plants"
55,105323,"causals","plant grow tall",0,"makes CATEGORY grow tall","[0, u'?', 0, 0, 2, 100, 98, 0, 100, 1, 0]",1,10,"speaker",20,"fertilizer","make the plants grow tall","rare_deterministic","daiths",0,"plants"
56,69248,"causals","plant grow tall",0,"makes CATEGORY grow tall","[100, 0, 0, 0, 100, 0, 0, 1, u'?', 100, 1]",8,10,"speaker",20,"fertilizer","make the plants grow tall","rare_deterministic","cheebas",0,"plants"
57,62294,"causals","plant grow tall",0,"makes CATEGORY grow tall","[2, 19, 19, 19, 0, 2, 0, 0, u'?', 0, 2]",8,10,"speaker",20,"fertilizer","make the plants grow tall","rare_weak","kazzes",1,"plants"
58,30083,"causals","animal make sleepy",0,"makes CATEGORY sleepy","[0, 1, 100, 0, u'?', 100, 2, 0, 99, 1, 0]",4,10,"speaker",20,"herb","make the animals sleepy","rare_deterministic","feps",1,"animals"
59,70103,"causals","plant grow tall",0,"makes CATEGORY grow tall","[98, 100, 97, u'?', 99, 100, 100, 100, 100, 99, 98]",3,10,"speaker",20,"fertilizer","make the plants grow tall","common_deterministic","morseths",1,"plants"
60,104961,"causals","animal make sleepy",0,"makes CATEGORY sleepy","[1, 0, u'?', 20, 0, 22, 1, 21, 0, 0, 0]",2,10,"speaker",20,"herb","make the animals sleepy","rare_weak","crullets",1,"animals"
61,57800,"causals","animal make sleepy",0,"makes CATEGORY sleepy","[20, 19, 0, 1, u'?', 0, 21, 2, 0, 0, 1]",4,10,"speaker",20,"herb","make the animals sleepy","rare_weak","trufts",1,"animals"
62,23268,"causals","animal make sleepy",0,"makes CATEGORY sleepy","[21, 22, 20, 18, 23, 17, u'?', 19, 19, 19, 20]",6,10,"speaker",20,"herb","make the animals sleepy","common_weak","zoovs",1,"animals"
63,158113,"causals","plant grow tall",0,"makes CATEGORY grow tall","[20, 22, 21, 22, 19, 23, 19, u'?', 21, 19, 18]",7,10,"speaker",20,"fertilizer","make the plants grow tall","common_weak","zoovs",0,"plants"
64,221575,"causals","animal make sleepy",0,"makes CATEGORY sleepy","[99, 100, u'?', 98, 100, 100, 99, 100, 100, 100, 100]",2,10,"speaker",20,"herb","make the animals sleepy","common_deterministic","krivels",0,"animals"
65,60306,"causals","animal make sleepy",0,"makes CATEGORY sleepy","[21, 0, 1, 0, 0, 21, u'?', 1, 20, 0, 1]",6,10,"speaker",20,"herb","make the animals sleepy","rare_weak","stups",1,"animals"
66,79257,"causals","plant grow tall",0,"makes CATEGORY grow tall","[0, 0, 0, 0, 0, 100, u'?', 100, 99, 0, 0]",6,10,"speaker",20,"fertilizer","make the plants grow tall","rare_deterministic","trufts",0,"plants"
67,64448,"causals","animal make sleepy",0,"makes CATEGORY sleepy","[0, 1, 0, 21, 0, 0, u'?', 20, 1, 0, 19]",6,10,"speaker",20,"herb","make the animals sleepy","rare_weak","wugs",1,"animals"
68,89203,"causals","plant grow tall",0,"makes CATEGORY grow tall","[19, 22, 20, 21, 17, 21, 20, 19, u'?', 19, 18]",8,10,"speaker",20,"fertilizer","make the plants grow tall","common_weak","elleps",0,"plants"
69,157287,"causals","animal make sleepy",0,"makes CATEGORY sleepy","[97, u'?', 1, 0, 99, 100, 1, 0, 0, 1, 0]",1,10,"speaker",20,"herb","make the animals sleepy","rare_deterministic","crullets",1,"animals"
70,161615,"causals","plant grow tall",0,"makes CATEGORY grow tall","[17, 0, 1, 0, 20, 1, u'?', 1, 2, 0, 17]",6,10,"speaker",20,"fertilizer","make the plants grow tall","rare_weak","dorbs",1,"plants"
71,88081,"causals","plant grow tall",0,"makes CATEGORY grow tall","[21, 22, 20, u'?', 20, 21, 19, 21, 20, 19, 19]",3,10,"speaker",20,"fertilizer","make the plants grow tall","common_weak","ackles",0,"plants"
72,43476,"causals","animal make sleepy",0,"makes CATEGORY sleepy","[1, 0, 0, 0, 100, u'?', 100, 100, 0, 0, 0]",5,10,"speaker",20,"herb","make the animals sleepy","rare_deterministic","lorches",0,"animals"
73,37746,"causals","animal make sleepy",0,"makes CATEGORY sleepy","[20, 22, 20, 19, 18, 20, 21, u'?', 19, 19, 21]",7,10,"speaker",20,"herb","make the animals sleepy","common_weak","morseths",0,"animals"
74,46409,"causals","animal make sleepy",0,"makes CATEGORY sleepy","[20, 0, u'?', 1, 0, 1, 20, 0, 0, 21, 1]",2,10,"speaker",20,"herb","make the animals sleepy","rare_weak","pangolins",0,"animals"
75,91618,"causals","animal make sleepy",0,"makes CATEGORY sleepy","[19, 0, 23, 0, 2, 0, 1, u'?', 0, 0, 17]",7,10,"speaker",20,"herb","make the animals sleepy","rare_weak","elleps",1,"animals"
76,126328,"causals","animal make sleepy",0,"makes CATEGORY sleepy","[99, 100, 98, 100, 99, u'?', 98, 100, 98, 100, 100]",5,10,"speaker",20,"herb","make the animals sleepy","common_deterministic","ollers",0,"animals"
77,46943,"causals","animal make sleepy",0,"makes CATEGORY sleepy","[100, 96, 100, u'?', 100, 99, 97, 97, 100, 100, 100]",3,10,"speaker",20,"herb","make the animals sleepy","common_deterministic","moxes",0,"animals"
78,78085,"causals","animal make sleepy",0,"makes CATEGORY sleepy","[0, u'?', 0, 100, 0, 0, 0, 0, 100, 1, 99]",1,10,"speaker",20,"herb","make the animals sleepy","rare_deterministic","cheebas",0,"animals"
79,93087,"causals","animal make sleepy",0,"makes CATEGORY sleepy","[100, u'?', 100, 100, 97, 100, 98, 99, 98, 99, 99]",1,10,"speaker",20,"herb","make the animals sleepy","common_deterministic","kazzes",0,"animals"
80,38135,"causals","plant grow tall",0,"makes CATEGORY grow tall","[98, 98, u'?', 96, 98, 96, 100, 100, 99, 100, 100]",2,10,"speaker",20,"fertilizer","make the plants grow tall","common_deterministic","lorches",1,"plants"
81,65468,"causals","animal make sleepy",0,"makes CATEGORY sleepy","[20, 21, 20, 18, 19, u'?', 19, 23, 18, 20, 21]",5,10,"speaker",20,"herb","make the animals sleepy","common_weak","moxes",0,"animals"
82,30548,"causals","plant grow tall",0,"makes CATEGORY grow tall","[99, 0, 0, 100, 99, 0, 2, u'?', 2, 1, 1]",7,10,"speaker",20,"fertilizer","make the plants grow tall","rare_deterministic","zoovs",0,"plants"
83,62027,"causals","plant grow tall",0,"makes CATEGORY grow tall","[2, 0, 0, 100, u'?', 1, 99, 2, 1, 0, 99]",4,10,"speaker",20,"fertilizer","make the plants grow tall","rare_deterministic","feps",0,"plants"
84,66891,"causals","plant grow tall",0,"makes CATEGORY grow tall","[100, u'?', 98, 99, 100, 98, 100, 99, 99, 100, 100]",1,10,"speaker",20,"fertilizer","make the plants grow tall","common_deterministic","morseths",0,"plants"
85,75568,"causals","animal make sleepy",0,"makes CATEGORY sleepy","[21, 20, 19, 24, 20, 20, 21, u'?', 19, 20, 21]",7,10,"speaker",20,"herb","make the animals sleepy","common_weak","elleps",0,"animals"
86,60266,"causals","plant grow tall",0,"makes CATEGORY grow tall","[100, 99, 100, u'?', 100, 100, 100, 100, 99, 100, 100]",3,10,"speaker",20,"fertilizer","make the plants grow tall","common_deterministic","morseths",0,"plants"
87,49773,"causals","animal make sleepy",0,"makes CATEGORY sleepy","[1, 20, 1, 1, 0, 0, 18, 19, u'?', 0, 0]",8,10,"speaker",20,"herb","make the animals sleepy","rare_weak","elleps",0,"animals"
88,34432,"causals","plant grow tall",0,"makes CATEGORY grow tall","[19, 19, 21, 18, 20, u'?', 20, 18, 21, 21, 20]",5,10,"speaker",20,"fertilizer","make the plants grow tall","common_weak","zoovs",0,"plants"
89,18525,"causals","plant grow tall",0,"makes CATEGORY grow tall","[21, 21, 19, 20, 19, 21, u'?', 21, 21, 22, 21]",6,10,"speaker",20,"fertilizer","make the plants grow tall","common_weak","blins",1,"plants"
90,10902,"causals","plant grow tall",0,"makes CATEGORY grow tall","[18, 0, 22, 0, 21, 0, u'?', 0, 0, 0, 0]",6,10,"speaker",20,"fertilizer","make the plants grow tall","rare_weak","grinks",1,"plants"
91,136991,"causals","animal make sleepy",0,"makes CATEGORY sleepy","[20, 22, 0, u'?', 0, 0, 0, 21, 0, 0, 0]",3,10,"speaker",20,"herb","make the animals sleepy","rare_weak","javs",1,"animals"
92,159282,"causals","animal make sleepy",0,"makes CATEGORY sleepy","[21, u'?', 21, 20, 18, 21, 19, 20, 19, 18, 21]",1,10,"speaker",20,"herb","make the animals sleepy","common_weak","daiths",1,"animals"
93,66498,"causals","plant grow tall",0,"makes CATEGORY grow tall","[0, 0, 100, 1, 100, u'?', 0, 0, 1, 0, 99]",5,10,"speaker",20,"fertilizer","make the plants grow tall","rare_deterministic","taifels",0,"plants"
94,187299,"causals","animal make sleepy",0,"makes CATEGORY sleepy","[1, 100, 98, 1, 0, 0, 0, 100, u'?', 2, 0]",8,10,"speaker",20,"herb","make the animals sleepy","rare_deterministic","glippets",1,"animals"
95,79977,"causals","plant grow tall",0,"makes CATEGORY grow tall","[97, 100, 99, 99, 100, 100, 98, u'?', 100, 99, 100]",7,10,"speaker",20,"fertilizer","make the plants grow tall","common_deterministic","dorbs",0,"plants"
96,72625,"causals","plant grow tall",0,"makes CATEGORY grow tall","[100, u'?', 0, 0, 0, 0, 2, 98, 0, 0, 100]",1,10,"speaker",20,"fertilizer","make the plants grow tall","rare_deterministic","pangolins",0,"plants"
97,37913,"causals","animal make sleepy",0,"makes CATEGORY sleepy","[0, 2, 22, 0, u'?', 0, 20, 20, 0, 0, 0]",4,10,"speaker",20,"herb","make the animals sleepy","rare_weak","kweps",1,"animals"
98,64942,"causals","plant grow tall",0,"makes CATEGORY grow tall","[21, 1, u'?', 0, 1, 1, 0, 0, 2, 20, 19]",2,10,"speaker",20,"fertilizer","make the plants grow tall","rare_weak","daiths",1,"plants"
99,111616,"causals","plant grow tall",0,"makes CATEGORY grow tall","[1, 0, 0, 23, 0, u'?', 0, 22, 0, 0, 22]",5,10,"speaker",20,"fertilizer","make the plants grow tall","rare_weak","trufts",1,"plants"
100,68537,"causals","animal make sleepy",0,"makes CATEGORY sleepy","[0, 100, 0, 0, 0, u'?', 0, 98, 0, 100, 0]",5,10,"speaker",20,"herb","make the animals sleepy","rare_deterministic","plovs",0,"animals"
101,99505,"causals","plant grow tall",0,"makes CATEGORY grow tall","[22, 0, 0, 1, u'?', 1, 20, 1, 22, 0, 0]",4,10,"speaker",20,"fertilizer","make the plants grow tall","rare_weak","dorbs",1,"plants"
102,101608,"causals","animal make sleepy",0,"makes CATEGORY sleepy","[22, 21, 19, 22, u'?', 19, 21, 20, 18, 20, 20]",4,10,"speaker",20,"herb","make the animals sleepy","common_weak","glippets",0,"animals"
103,169396,"causals","plant grow tall",0,"makes CATEGORY grow tall","[1, 2, 0, 21, u'?', 21, 20, 0, 0, 0, 1]",4,10,"speaker",20,"fertilizer","make the plants grow tall","rare_weak","glippets",1,"plants"
104,118279,"causals","animal make sleepy",0,"makes CATEGORY sleepy","[100, 100, 98, 98, 99, 99, u'?', 96, 100, 100, 100]",6,10,"speaker",20,"herb","make the animals sleepy","common_deterministic","luzaks",0,"animals"
105,80037,"causals","animal make sleepy",0,"makes CATEGORY sleepy","[99, 99, 100, 100, 98, 100, 100, u'?', 100, 100, 100]",7,10,"speaker",20,"herb","make the animals sleepy","common_deterministic","thups",0,"animals"
106,70264,"causals","plant grow tall",0,"makes CATEGORY grow tall","[100, u'?', 98, 100, 100, 97, 99, 100, 98, 99, 97]",1,10,"speaker",20,"fertilizer","make the plants grow tall","common_deterministic","ollers",0,"plants"
107,42435,"causals","animal make sleepy",0,"makes CATEGORY sleepy","[100, 100, 100, u'?', 100, 98, 100, 100, 96, 100, 100]",3,10,"speaker",20,"herb","make the animals sleepy","common_deterministic","kweps",1,"animals"
108,57477,"causals","plant grow tall",0,"makes CATEGORY grow tall","[100, 100, 2, 1, 0, 0, u'?', 0, 2, 0, 100]",6,10,"speaker",20,"fertilizer","make the plants grow tall","rare_deterministic","trufts",0,"plants"
109,16836,"causals","plant grow tall",0,"makes CATEGORY grow tall","[97, 100, u'?', 100, 98, 100, 99, 99, 100, 99, 100]",2,10,"speaker",20,"fertilizer","make the plants grow tall","common_deterministic","krivels",1,"plants"
110,86258,"causals","plant grow tall",0,"makes CATEGORY grow tall","[21, 0, 16, 0, 20, 0, 0, u'?', 0, 1, 1]",7,10,"speaker",20,"fertilizer","make the plants grow tall","rare_weak","zorbs",1,"plants"
111,94975,"causals","animal make sleepy",0,"makes CATEGORY sleepy","[1, 0, 100, 1, 100, 0, u'?', 98, 0, 0, 1]",6,10,"speaker",20,"herb","make the animals sleepy","rare_deterministic","ackles",0,"animals"
112,58955,"causals","plant grow tall",0,"makes CATEGORY grow tall","[0, u'?', 0, 0, 0, 100, 98, 0, 0, 100, 0]",1,10,"speaker",20,"fertilizer","make the plants grow tall","rare_deterministic","crullets",0,"plants"
113,91379,"causals","animal make sleepy",0,"makes CATEGORY sleepy","[17, 21, 0, 21, 0, 0, u'?', 0, 2, 0, 1]",6,10,"speaker",20,"herb","make the animals sleepy","rare_weak","feps",1,"animals"
114,6534,"causals","animal make sleepy",0,"makes CATEGORY sleepy","[19, 17, 18, 21, 21, 18, 20, u'?', 21, 23, 21]",7,10,"speaker",20,"herb","make the animals sleepy","common_weak","sapers",1,"animals"
115,50771,"causals","animal make sleepy",0,"makes CATEGORY sleepy","[1, u'?', 0, 0, 21, 0, 18, 0, 20, 0, 0]",1,10,"speaker",20,"herb","make the animals sleepy","rare_weak","kweps",0,"animals"
116,61982,"causals","plant grow tall",0,"makes CATEGORY grow tall","[0, 0, 0, 1, u'?', 98, 100, 100, 0, 0, 1]",4,10,"speaker",20,"fertilizer","make the plants grow tall","rare_deterministic","luzaks",0,"plants"
117,32716,"causals","plant grow tall",0,"makes CATEGORY grow tall","[19, 22, 1, 0, 0, 1, 21, u'?', 0, 0, 0]",7,10,"speaker",20,"fertilizer","make the plants grow tall","rare_weak","luzaks",1,"plants"
118,80875,"causals","plant grow tall",0,"makes CATEGORY grow tall","[21, u'?', 1, 20, 19, 0, 0, 0, 0, 1, 0]",1,10,"speaker",20,"fertilizer","make the plants grow tall","rare_weak","morseths",0,"plants"
119,65739,"causals","plant grow tall",0,"makes CATEGORY grow tall","[21, 23, u'?', 21, 18, 20, 19, 21, 20, 20, 19]",2,10,"speaker",20,"fertilizer","make the plants grow tall","common_weak","moxes",1,"plants"
120,74768,"causals","animal make sleepy",0,"makes CATEGORY sleepy","[18, 20, 21, 21, 22, 18, 20, u'?', 21, 20, 19]",7,10,"speaker",20,"herb","make the animals sleepy","common_weak","taifels",1,"animals"
121,31058,"causals","animal make sleepy",0,"makes CATEGORY sleepy","[20, 20, 21, u'?', 18, 17, 21, 21, 18, 20, 22]",3,10,"speaker",20,"herb","make the animals sleepy","common_weak","pangolins",0,"animals"
122,118304,"causals","plant grow tall",0,"makes CATEGORY grow tall","[1, 1, 0, 0, u'?', 98, 0, 99, 2, 0, 98]",4,10,"speaker",20,"fertilizer","make the plants grow tall","rare_deterministic","taifels",1,"plants"
123,80333,"causals","animal make sleepy",0,"makes CATEGORY sleepy","[99, 0, 0, 1, u'?', 0, 100, 1, 100, 0, 0]",4,10,"speaker",20,"herb","make the animals sleepy","rare_deterministic","morseths",1,"animals"
124,98828,"causals","plant grow tall",0,"makes CATEGORY grow tall","[100, 99, 100, 100, 100, u'?', 98, 100, 98, 100, 100]",5,10,"speaker",20,"fertilizer","make the plants grow tall","common_deterministic","zorbs",1,"plants"
125,128998,"causals","animal make sleepy",0,"makes CATEGORY sleepy","[20, 21, u'?', 21, 21, 19, 23, 21, 20, 21, 19]",2,10,"speaker",20,"herb","make the animals sleepy","common_weak","reesles",0,"animals"
126,70231,"causals","animal make sleepy",0,"makes CATEGORY sleepy","[100, 98, u'?', 99, 100, 100, 98, 100, 99, 99, 99]",2,10,"speaker",20,"herb","make the animals sleepy","common_deterministic","reesles",0,"animals"
127,137336,"causals","plant grow tall",0,"makes CATEGORY grow tall","[100, 98, 100, 100, u'?', 100, 100, 100, 99, 99, 99]",4,10,"speaker",20,"fertilizer","make the plants grow tall","common_deterministic","elleps",0,"plants"
128,55149,"causals","plant grow tall",0,"makes CATEGORY grow tall","[0, 99, 0, 100, 1, u'?', 0, 0, 2, 100, 1]",5,10,"speaker",20,"fertilizer","make the plants grow tall","rare_deterministic","thups",0,"plants"
129,55775,"causals","animal make sleepy",0,"makes CATEGORY sleepy","[100, 99, 100, u'?', 100, 99, 100, 100, 100, 100, 98]",3,10,"speaker",20,"herb","make the animals sleepy","common_deterministic","crullets",0,"animals"
130,43979,"causals","plant grow tall",0,"makes CATEGORY grow tall","[0, 1, 100, 0, 2, u'?', 1, 1, 1, 97, 100]",5,10,"speaker",20,"fertilizer","make the plants grow tall","rare_deterministic","pangolins",0,"plants"
131,30199,"causals","plant grow tall",0,"makes CATEGORY grow tall","[0, u'?', 0, 20, 0, 21, 0, 0, 21, 1, 0]",1,10,"speaker",20,"fertilizer","make the plants grow tall","rare_weak","ollers",0,"plants"
132,49383,"causals","animal make sleepy",0,"makes CATEGORY sleepy","[100, 100, u'?', 99, 100, 98, 98, 100, 100, 100, 98]",2,10,"speaker",20,"herb","make the animals sleepy","common_deterministic","stups",0,"animals"
133,77608,"causals","animal make sleepy",0,"makes CATEGORY sleepy","[99, 0, 100, u'?', 1, 1, 0, 0, 1, 100, 0]",3,10,"speaker",20,"herb","make the animals sleepy","rare_deterministic","elleps",0,"animals"
134,27329,"causals","plant grow tall",0,"makes CATEGORY grow tall","[0, 0, 17, 1, 20, 1, 0, u'?', 0, 0, 20]",7,10,"speaker",20,"fertilizer","make the plants grow tall","rare_weak","javs",1,"plants"
135,54331,"causals","plant grow tall",0,"makes CATEGORY grow tall","[3, 0, 0, 1, 0, u'?', 19, 21, 0, 2, 19]",5,10,"speaker",20,"fertilizer","make the plants grow tall","rare_weak","pangolins",0,"plants"
136,9507,"causals","animal make sleepy",0,"makes CATEGORY sleepy","[20, 21, 19, 20, 20, 20, u'?', 19, 21, 21, 19]",6,10,"speaker",20,"herb","make the animals sleepy","common_weak","ackles",0,"animals"
137,62148,"causals","plant grow tall",0,"makes CATEGORY grow tall","[1, 0, 100, 0, 2, u'?', 100, 0, 100, 0, 0]",5,10,"speaker",20,"fertilizer","make the plants grow tall","rare_deterministic","pangolins",1,"plants"
138,68418,"causals","animal make sleepy",0,"makes CATEGORY sleepy","[22, 0, 0, 18, 0, 0, 0, u'?', 0, 20, 0]",7,10,"speaker",20,"herb","make the animals sleepy","rare_weak","reesles",1,"animals"
139,90290,"causals","animal make sleepy",0,"makes CATEGORY sleepy","[99, 100, 99, u'?', 100, 100, 97, 100, 99, 100, 100]",3,10,"speaker",20,"herb","make the animals sleepy","common_deterministic","wugs",0,"animals"
140,54875,"causals","animal make sleepy",0,"makes CATEGORY sleepy","[0, 0, 0, 2, 0, 18, 0, 19, u'?', 21, 0]",8,10,"speaker",20,"herb","make the animals sleepy","rare_weak","wugs",1,"animals"
141,211625,"causals","animal make sleepy",0,"makes CATEGORY sleepy","[20, u'?', 0, 2, 0, 20, 1, 21, 0, 0, 0]",1,10,"speaker",20,"herb","make the animals sleepy","rare_weak","grinks",0,"animals"
142,86639,"causals","plant grow tall",0,"makes CATEGORY grow tall","[100, 99, 100, 100, 100, 99, 100, u'?', 100, 98, 100]",7,10,"speaker",20,"fertilizer","make the plants grow tall","common_deterministic","krivels",0,"plants"
143,62585,"causals","animal make sleepy",0,"makes CATEGORY sleepy","[100, 99, 100, 99, 100, 96, 100, u'?', 100, 98, 98]",7,10,"speaker",20,"herb","make the animals sleepy","common_deterministic","krivels",0,"animals"
144,86030,"causals","animal make sleepy",0,"makes CATEGORY sleepy","[23, 21, 20, 19, 18, 19, u'?', 21, 17, 19, 19]",6,10,"speaker",20,"herb","make the animals sleepy","common_weak","zorbs",0,"animals"
145,87335,"causals","animal make sleepy",0,"makes CATEGORY sleepy","[21, 22, 20, 21, 18, 21, 19, 16, u'?', 22, 18]",8,10,"speaker",20,"herb","make the animals sleepy","common_weak","cheebas",0,"animals"
146,106650,"causals","plant grow tall",0,"makes CATEGORY grow tall","[17, 0, u'?', 0, 21, 1, 1, 0, 1, 1, 21]",2,10,"speaker",20,"fertilizer","make the plants grow tall","rare_weak","glippets",1,"plants"
147,61378,"causals","plant grow tall",0,"makes CATEGORY grow tall","[0, 0, 21, 0, u'?', 0, 21, 1, 0, 0, 22]",4,10,"speaker",20,"fertilizer","make the plants grow tall","rare_weak","pangolins",0,"plants"
148,92753,"causals","animal make sleepy",0,"makes CATEGORY sleepy","[98, u'?', 100, 100, 99, 100, 98, 100, 98, 100, 99]",1,10,"speaker",20,"herb","make the animals sleepy","common_deterministic","krivels",0,"animals"
149,161258,"causals","animal make sleepy",0,"makes CATEGORY sleepy","[100, 0, 0, 0, 1, 0, 0, u'?', 100, 98, 0]",7,10,"speaker",20,"herb","make the animals sleepy","rare_deterministic","blins",0,"animals"
150,37443,"causals","animal make sleepy",0,"makes CATEGORY sleepy","[0, u'?', 100, 0, 0, 1, 0, 1, 99, 98, 1]",1,10,"speaker",20,"herb","make the animals sleepy","rare_deterministic","dorbs",1,"animals"
151,14751,"causals","plant grow tall",0,"makes CATEGORY grow tall","[22, 20, 0, 0, 20, 1, 1, 1, u'?', 3, 1]",8,10,"speaker",20,"fertilizer","make the plants grow tall","rare_weak","thups",0,"plants"
152,59772,"causals","animal make sleepy",0,"makes CATEGORY sleepy","[0, 0, 100, u'?', 0, 100, 1, 99, 0, 0, 1]",3,10,"speaker",20,"herb","make the animals sleepy","rare_deterministic","blins",0,"animals"
153,39315,"causals","plant grow tall",0,"makes CATEGORY grow tall","[19, 0, 0, 1, 0, 19, 0, 18, u'?', 0, 2]",8,10,"speaker",20,"fertilizer","make the plants grow tall","rare_weak","crullets",1,"plants"
154,57112,"causals","plant grow tall",0,"makes CATEGORY grow tall","[0, 0, 98, 99, 0, 0, u'?', 0, 97, 1, 1]",6,10,"speaker",20,"fertilizer","make the plants grow tall","rare_deterministic","crullets",0,"plants"
155,69400,"causals","plant grow tall",0,"makes CATEGORY grow tall","[100, 100, 100, 99, 100, 100, 97, 97, u'?', 100, 99]",8,10,"speaker",20,"fertilizer","make the plants grow tall","common_deterministic","morseths",0,"plants"
156,43271,"causals","animal make sleepy",0,"makes CATEGORY sleepy","[100, 100, 99, 96, u'?', 100, 100, 100, 100, 98, 100]",4,10,"speaker",20,"herb","make the animals sleepy","common_deterministic","cheebas",0,"animals"
157,89626,"causals","plant grow tall",0,"makes CATEGORY grow tall","[23, 18, 20, u'?', 19, 22, 21, 22, 20, 21, 20]",3,10,"speaker",20,"fertilizer","make the plants grow tall","common_weak","ackles",0,"plants"
158,108185,"causals","animal make sleepy",0,"makes CATEGORY sleepy","[100, 100, 100, 100, u'?', 98, 100, 98, 100, 100, 99]",4,10,"speaker",20,"herb","make the animals sleepy","common_deterministic","trufts",0,"animals"
159,172863,"causals","animal make sleepy",0,"makes CATEGORY sleepy","[20, 22, 22, 22, u'?', 21, 23, 20, 18, 21, 21]",4,10,"speaker",20,"herb","make the animals sleepy","common_weak","frams",0,"animals"
160,90530,"causals","plant grow tall",0,"makes CATEGORY grow tall","[1, 97, 2, 0, 0, u'?', 100, 100, 1, 0, 1]",5,10,"speaker",20,"fertilizer","make the plants grow tall","rare_deterministic","ollers",1,"plants"
161,48542,"causals","plant grow tall",0,"makes CATEGORY grow tall","[98, 100, 100, 100, 100, 97, u'?', 97, 100, 100, 100]",6,10,"speaker",20,"fertilizer","make the plants grow tall","common_deterministic","crullets",0,"plants"
162,69224,"causals","plant grow tall",0,"makes CATEGORY grow tall","[0, u'?', 18, 20, 0, 20, 0, 1, 0, 0, 1]",1,10,"speaker",20,"fertilizer","make the plants grow tall","rare_weak","kweps",1,"plants"
163,118510,"causals","plant grow tall",0,"makes CATEGORY grow tall","[2, 0, 0, 0, 100, 0, 1, u'?', 98, 0, 99]",7,10,"speaker",20,"fertilizer","make the plants grow tall","rare_deterministic","plovs",0,"plants"
164,89030,"causals","animal make sleepy",0,"makes CATEGORY sleepy","[18, 19, u'?', 19, 20, 19, 22, 20, 18, 20, 19]",2,10,"speaker",20,"herb","make the animals sleepy","common_weak","lorches",1,"animals"
165,71905,"causals","animal make sleepy",0,"makes CATEGORY sleepy","[18, 19, 0, 1, 0, 0, 20, u'?', 0, 0, 0]",7,10,"speaker",20,"herb","make the animals sleepy","rare_weak","wugs",0,"animals"
166,52572,"causals","plant grow tall",0,"makes CATEGORY grow tall","[100, 99, 98, 100, 100, u'?', 100, 100, 100, 99, 99]",5,10,"speaker",20,"fertilizer","make the plants grow tall","common_deterministic","zorbs",0,"plants"
167,63618,"causals","plant grow tall",0,"makes CATEGORY grow tall","[100, 99, 99, 98, 97, 99, 97, 100, u'?', 100, 100]",8,10,"speaker",20,"fertilizer","make the plants grow tall","common_deterministic","morseths",0,"plants"
168,175884,"causals","animal make sleepy",0,"makes CATEGORY sleepy","[0, 0, 0, 0, u'?', 99, 0, 0, 0, 100, 100]",4,10,"speaker",20,"herb","make the animals sleepy","rare_deterministic","kazzes",1,"animals"
169,45076,"causals","plant grow tall",0,"makes CATEGORY grow tall","[100, u'?', 100, 99, 100, 100, 100, 99, 99, 100, 100]",1,10,"speaker",20,"fertilizer","make the plants grow tall","common_deterministic","pangolins",0,"plants"
170,123703,"causals","plant grow tall",0,"makes CATEGORY grow tall","[20, 1, 18, u'?', 20, 1, 0, 0, 1, 1, 2]",3,10,"speaker",20,"fertilizer","make the plants grow tall","rare_weak","morseths",0,"plants"
171,52605,"causals","animal make sleepy",0,"makes CATEGORY sleepy","[0, 0, 0, 0, 21, 19, u'?', 19, 0, 1, 0]",6,10,"speaker",20,"herb","make the animals sleepy","rare_weak","morseths",1,"animals"
172,231901,"causals","animal make sleepy",0,"makes CATEGORY sleepy","[0, 99, u'?', 1, 0, 0, 1, 100, 0, 0, 99]",2,10,"speaker",20,"herb","make the animals sleepy","rare_deterministic","zoovs",0,"animals"
173,34078,"causals","animal make sleepy",0,"makes CATEGORY sleepy","[0, u'?', 0, 0, 1, 100, 0, 0, 100, 100, 0]",1,10,"speaker",20,"herb","make the animals sleepy","rare_deterministic","ollers",0,"animals"
174,89279,"causals","animal make sleepy",0,"makes CATEGORY sleepy","[100, u'?', 2, 96, 0, 0, 0, 0, 1, 99, 0]",1,10,"speaker",20,"herb","make the animals sleepy","rare_deterministic","elleps",0,"animals"
175,73139,"causals","plant grow tall",0,"makes CATEGORY grow tall","[17, 20, u'?', 21, 21, 19, 21, 19, 21, 19, 20]",2,10,"speaker",20,"fertilizer","make the plants grow tall","common_weak","blins",1,"plants"
176,26002,"causals","plant grow tall",0,"makes CATEGORY grow tall","[18, 19, 23, u'?', 21, 20, 20, 19, 21, 19, 21]",3,10,"speaker",20,"fertilizer","make the plants grow tall","common_weak","luzaks",1,"plants"
177,96420,"causals","animal make sleepy",0,"makes CATEGORY sleepy","[0, 0, 1, 0, 20, u'?', 0, 0, 19, 0, 23]",5,10,"speaker",20,"herb","make the animals sleepy","rare_weak","ollers",1,"animals"
178,93727,"causals","plant grow tall",0,"makes CATEGORY grow tall","[19, 23, 20, 21, 19, 20, u'?', 19, 19, 21, 20]",6,10,"speaker",20,"fertilizer","make the plants grow tall","common_weak","cheebas",0,"plants"
179,120205,"causals","animal make sleepy",0,"makes CATEGORY sleepy","[20, 20, 20, 20, 18, 20, 20, 20, u'?', 18, 20]",8,10,"speaker",20,"herb","make the animals sleepy","common_weak","cheebas",0,"animals"
180,103133,"causals","animal make sleepy",0,"makes CATEGORY sleepy","[23, 20, 21, 18, 17, 20, 21, u'?', 19, 18, 19]",7,10,"speaker",20,"herb","make the animals sleepy","common_weak","cheebas",1,"animals"
181,147267,"causals","animal make sleepy",0,"makes CATEGORY sleepy","[0, u'?', 1, 0, 0, 0, 20, 20, 1, 2, 19]",1,10,"speaker",20,"herb","make the animals sleepy","rare_weak","thups",0,"animals"
182,107762,"causals","plant grow tall",0,"makes CATEGORY grow tall","[100, 100, 100, 98, 98, 100, u'?', 100, 100, 99, 99]",6,10,"speaker",20,"fertilizer","make the plants grow tall","common_deterministic","ollers",0,"plants"
183,85083,"causals","plant grow tall",0,"makes CATEGORY grow tall","[19, 22, 20, 22, 19, 22, 18, u'?', 18, 21, 18]",7,10,"speaker",20,"fertilizer","make the plants grow tall","common_weak","reesles",1,"plants"
184,63534,"causals","plant grow tall",0,"makes CATEGORY grow tall","[0, 0, 0, u'?', 0, 0, 1, 23, 1, 22, 20]",3,10,"speaker",20,"fertilizer","make the plants grow tall","rare_weak","glippets",1,"plants"
185,103979,"causals","plant grow tall",0,"makes CATEGORY grow tall","[1, u'?', 21, 0, 0, 20, 0, 0, 2, 21, 0]",1,10,"speaker",20,"fertilizer","make the plants grow tall","rare_weak","feps",0,"plants"
186,84555,"causals","plant grow tall",0,"makes CATEGORY grow tall","[1, u'?', 98, 0, 0, 100, 1, 1, 0, 99, 1]",1,10,"speaker",20,"fertilizer","make the plants grow tall","rare_deterministic","plovs",0,"plants"
187,78867,"causals","plant grow tall",0,"makes CATEGORY grow tall","[100, 0, 0, 99, 100, 0, 1, 2, u'?', 0, 1]",8,10,"speaker",20,"fertilizer","make the plants grow tall","rare_deterministic","sapers",0,"plants"
188,210180,"causals","animal make sleepy",0,"makes CATEGORY sleepy","[100, 99, 100, u'?', 100, 98, 100, 100, 99, 100, 100]",3,10,"speaker",20,"herb","make the animals sleepy","common_deterministic","crullets",0,"animals"
189,122963,"causals","animal make sleepy",0,"makes CATEGORY sleepy","[100, 100, 98, 96, 100, 99, 100, u'?', 99, 100, 100]",7,10,"speaker",20,"herb","make the animals sleepy","common_deterministic","javs",0,"animals"
190,106410,"causals","animal make sleepy",0,"makes CATEGORY sleepy","[0, 99, 99, 0, 0, u'?', 0, 99, 0, 0, 0]",5,10,"speaker",20,"herb","make the animals sleepy","rare_deterministic","thups",0,"animals"
191,83909,"causals","animal make sleepy",0,"makes CATEGORY sleepy","[0, 100, 97, 100, 0, 0, u'?', 2, 2, 0, 0]",6,10,"speaker",20,"herb","make the animals sleepy","rare_deterministic","kweps",1,"animals"
192,32944,"causals","animal make sleepy",0,"makes CATEGORY sleepy","[0, 0, 0, 20, 1, u'?', 20, 21, 2, 0, 0]",5,10,"speaker",20,"herb","make the animals sleepy","rare_weak","ollers",0,"animals"
193,42531,"causals","plant grow tall",0,"makes CATEGORY grow tall","[0, 18, u'?', 0, 1, 20, 21, 1, 0, 2, 0]",2,10,"speaker",20,"fertilizer","make the plants grow tall","rare_weak","thups",1,"plants"
194,93892,"causals","plant grow tall",0,"makes CATEGORY grow tall","[0, u'?', 1, 1, 21, 20, 0, 0, 0, 0, 19]",1,10,"speaker",20,"fertilizer","make the plants grow tall","rare_weak","pangolins",0,"plants"
195,117006,"causals","animal make sleepy",0,"makes CATEGORY sleepy","[0, 0, 99, 0, 99, u'?', 0, 0, 1, 1, 99]",5,10,"speaker",20,"herb","make the animals sleepy","rare_deterministic","kweps",1,"animals"
196,22677,"causals","animal make sleepy",0,"makes CATEGORY sleepy","[20, u'?', 20, 22, 22, 20, 18, 19, 20, 19, 21]",1,10,"speaker",20,"herb","make the animals sleepy","common_weak","krivels",1,"animals"
197,45508,"causals","plant grow tall",0,"makes CATEGORY grow tall","[0, 0, 100, u'?', 0, 100, 0, 0, 1, 100, 0]",3,10,"speaker",20,"fertilizer","make the plants grow tall","rare_deterministic","grinks",1,"plants"
198,75097,"causals","plant grow tall",0,"makes CATEGORY grow tall","[96, 100, 100, 100, 100, u'?', 100, 98, 100, 100, 100]",5,10,"speaker",20,"fertilizer","make the plants grow tall","common_deterministic","stups",0,"plants"
199,69061,"causals","animal make sleepy",0,"makes CATEGORY sleepy","[18, 22, 21, 19, 20, 21, u'?', 22, 22, 17, 21]",6,10,"speaker",20,"herb","make the animals sleepy","common_weak","plovs",0,"animals"
